Data from AbsoluteIrradiance__4__17-13-05-497.txt Node

Date: Fri Jul 22 17:13:05 EDT 2022
User: enochs
Spectrometer: FLMS17410
Trigger mode: 0
Integration Time (sec): 1.545400E-1
Scans to average: 5
Electric dark correction enabled: true
Nonlinearity correction enabled: true
Boxcar width: 5
XAxis mode: Wavelengths
Number of Pixels in Spectrum: 2048
>>>>>Begin Spectral Data<<<<<
179.501	0
179.881	0
180.261	0
180.64	0
181.02	0
181.399	0
181.779	0
182.158	0
182.537	0
182.917	0
183.296	0
183.675	0
184.055	-0
184.434	-0
184.813	-0
185.192	-0
185.571	-0
185.95	-0
186.329	-0
186.708	-0
187.087	0
187.466	0
187.845	0
188.224	0
188.603	0
188.982	0
189.361	0
189.739	0
190.118	0
190.497	0
190.875	0
191.254	0
191.632	0
192.011	0
192.39	0
192.768	0
193.146	0
193.525	0
193.903	0
194.282	0
194.66	0
195.038	0
195.416	0
195.794	0
196.173	0
196.551	0
196.929	0
197.307	0
197.685	0
198.063	0
198.441	0
198.819	0
199.197	0
199.575	0
199.952	0
200.33	9.47
200.708	9.05
201.086	8.88
201.463	8.89
201.841	9
202.218	8.76
202.596	8.21
202.974	7.83
203.351	7.47
203.729	6.82
204.106	6.99
204.483	6.37
204.861	5.94
205.238	5.65
205.615	5.03
205.993	4.74
206.37	4.69
206.747	4.6
207.124	4.5
207.501	4.29
207.878	4.11
208.255	3.99
208.632	4
209.009	3.75
209.386	3.61
209.763	3.65
210.14	3.41
210.517	3.34
210.894	3.25
211.271	2.97
211.647	2.87
212.024	2.83
212.401	2.71
212.777	2.57
213.154	2.56
213.531	2.52
213.907	2.43
214.284	2.34
214.66	2.15
215.036	2.09
215.413	2.07
215.789	1.99
216.166	1.99
216.542	1.88
216.918	1.79
217.294	1.77
217.67	1.77
218.047	1.69
218.423	1.65
218.799	1.6
219.175	1.54
219.551	1.54
219.927	1.54
220.303	1.46
220.679	1.46
221.054	1.48
221.43	1.47
221.806	1.41
222.182	1.42
222.558	1.38
222.933	1.39
223.309	1.4
223.685	1.35
224.06	1.32
224.436	1.28
224.811	1.26
225.187	1.2
225.562	1.15
225.938	1.13
226.313	1.09
226.688	1.13
227.064	1.11
227.439	1.1
227.814	1.07
228.189	1.04
228.564	1.03
228.94	1
229.315	0.98
229.69	0.95
230.065	0.9
230.44	0.89
230.815	0.83
231.19	0.82
231.564	0.8
231.939	0.79
232.314	0.78
232.689	0.75
233.064	0.75
233.438	0.74
233.813	0.76
234.188	0.75
234.562	0.73
234.937	0.71
235.311	0.68
235.686	0.65
236.06	0.63
236.435	0.62
236.809	0.64
237.183	0.6
237.558	0.59
237.932	0.59
238.306	0.58
238.68	0.58
239.055	0.58
239.429	0.57
239.803	0.56
240.177	0.57
240.551	0.55
240.925	0.52
241.299	0.53
241.673	0.51
242.047	0.49
242.42	0.49
242.794	0.46
243.168	0.44
243.542	0.43
243.915	0.43
244.289	0.42
244.663	0.41
245.036	0.41
245.41	0.4
245.783	0.38
246.157	0.37
246.53	0.35
246.904	0.34
247.277	0.33
247.651	0.33
248.024	0.33
248.397	0.33
248.77	0.32
249.144	0.3
249.517	0.31
249.89	0.31
250.263	0.31
250.636	0.3
251.009	0.31
251.382	0.31
251.755	0.31
252.128	0.29
252.501	0.28
252.874	0.27
253.246	0.27
253.619	0.26
253.992	0.26
254.365	0.25
254.737	0.25
255.11	0.25
255.483	0.25
255.855	0.23
256.228	0.24
256.6	0.23
256.973	0.23
257.345	0.23
257.717	0.22
258.09	0.21
258.462	0.21
258.834	0.21
259.206	0.21
259.579	0.21
259.951	0.21
260.323	0.21
260.695	0.2
261.067	0.2
261.439	0.21
261.811	0.2
262.183	0.2
262.555	0.21
262.927	0.2
263.299	0.2
263.67	0.19
264.042	0.19
264.414	0.18
264.786	0.18
265.157	0.18
265.529	0.18
265.9	0.18
266.272	0.18
266.643	0.18
267.015	0.18
267.386	0.17
267.758	0.17
268.129	0.17
268.5	0.18
268.872	0.18
269.243	0.17
269.614	0.17
269.985	0.17
270.357	0.17
270.728	0.18
271.099	0.18
271.47	0.18
271.841	0.18
272.212	0.18
272.583	0.17
272.953	0.17
273.324	0.18
273.695	0.18
274.066	0.17
274.437	0.17
274.807	0.16
275.178	0.16
275.549	0.16
275.919	0.16
276.29	0.16
276.66	0.16
277.031	0.16
277.401	0.16
277.772	0.16
278.142	0.16
278.512	0.15
278.883	0.15
279.253	0.16
279.623	0.16
279.993	0.16
280.364	0.16
280.734	0.15
281.104	0.15
281.474	0.14
281.844	0.14
282.214	0.14
282.584	0.14
282.954	0.13
283.323	0.13
283.693	0.13
284.063	0.13
284.433	0.12
284.802	0.12
285.172	0.11
285.542	0.12
285.911	0.12
286.281	0.12
286.65	0.12
287.02	0.12
287.389	0.13
287.759	0.13
288.128	0.12
288.498	0.13
288.867	0.13
289.236	0.13
289.605	0.13
289.975	0.13
290.344	0.13
290.713	0.13
291.082	0.13
291.451	0.13
291.82	0.13
292.189	0.13
292.558	0.13
292.927	0.13
293.296	0.13
293.664	0.12
294.033	0.12
294.402	0.12
294.771	0.12
295.139	0.12
295.508	0.12
295.877	0.12
296.245	0.12
296.614	0.13
296.982	0.13
297.351	0.12
297.719	0.13
298.087	0.13
298.456	0.12
298.824	0.12
299.192	0.12
299.561	0.12
299.929	0.11
300.297	0.11
300.665	0.11
301.033	0.11
301.401	0.11
301.769	0.1
302.137	0.1
302.505	0.1
302.873	0.1
303.241	0.1
303.609	0.09
303.976	0.09
304.344	0.09
304.712	0.09
305.079	0.09
305.447	0.09
305.815	0.09
306.182	0.09
306.55	0.09
306.917	0.09
307.285	0.1
307.652	0.1
308.019	0.1
308.387	0.09
308.754	0.09
309.121	0.09
309.489	0.09
309.856	0.09
310.223	0.09
310.59	0.09
310.957	0.09
311.324	0.09
311.691	0.09
312.058	0.09
312.425	0.09
312.792	0.09
313.159	0.08
313.525	0.08
313.892	0.09
314.259	0.09
314.626	0.09
314.992	0.09
315.359	0.08
315.725	0.08
316.092	0.08
316.459	0.08
316.825	0.08
317.191	0.08
317.558	0.08
317.924	0.08
318.29	0.08
318.657	0.08
319.023	0.08
319.389	0.08
319.755	0.08
320.121	0.08
320.488	0.08
320.854	0.09
321.22	0.09
321.586	0.09
321.952	0.09
322.317	0.09
322.683	0.09
323.049	0.08
323.415	0.08
323.781	0.08
324.146	0.08
324.512	0.08
324.878	0.07
325.243	0.07
325.609	0.07
325.974	0.07
326.34	0.07
326.705	0.07
327.071	0.07
327.436	0.08
327.801	0.08
328.167	0.08
328.532	0.08
328.897	0.08
329.262	0.08
329.627	0.08
329.992	0.08
330.357	0.08
330.722	0.09
331.087	0.08
331.452	0.08
331.817	0.08
332.182	0.08
332.547	0.08
332.912	0.08
333.277	0.08
333.641	0.08
334.006	0.07
334.371	0.07
334.735	0.07
335.1	0.07
335.464	0.07
335.829	0.07
336.193	0.07
336.558	0.07
336.922	0.07
337.286	0.07
337.651	0.07
338.015	0.07
338.379	0.07
338.743	0.08
339.107	0.08
339.471	0.07
339.836	0.07
340.2	0.07
340.564	0.07
340.927	0.07
341.291	0.06
341.655	0.06
342.019	0.06
342.383	0.06
342.747	0.06
343.11	0.06
343.474	0.06
343.838	0.06
344.201	0.06
344.565	0.06
344.928	0.06
345.292	0.06
345.655	0.06
346.019	0.06
346.382	0.06
346.745	0.06
347.109	0.06
347.472	0.06
347.835	0.06
348.198	0.06
348.561	0.06
348.925	0.07
349.288	0.07
349.651	0.06
350.014	0.07
350.377	0.06
350.739	0.07
351.102	0.07
351.465	0.07
351.828	0.07
352.191	0.07
352.553	0.07
352.916	0.07
353.279	0.07
353.641	0.07
354.004	0.06
354.366	0.07
354.729	0.06
355.091	0.06
355.454	0.06
355.816	0.06
356.178	0.06
356.541	0.06
356.903	0.06
357.265	0.06
357.627	0.06
357.989	0.06
358.351	0.06
358.714	0.06
359.076	0.06
359.437	0.06
359.799	0.06
360.161	0.06
360.523	0.06
360.885	0.06
361.247	0.06
361.608	0.06
361.97	0.06
362.332	0.06
362.693	0.06
363.055	0.06
363.417	0.06
363.778	0.06
364.14	0.06
364.501	0.06
364.862	0.06
365.224	0.06
365.585	0.06
365.946	0.06
366.307	0.06
366.669	0.06
367.03	0.06
367.391	0.06
367.752	0.05
368.113	0.05
368.474	0.05
368.835	0.06
369.196	0.06
369.557	0.06
369.918	0.06
370.278	0.06
370.639	0.06
371	0.06
371.361	0.06
371.721	0.06
372.082	0.06
372.442	0.06
372.803	0.06
373.163	0.06
373.524	0.06
373.884	0.06
374.245	0.06
374.605	0.06
374.965	0.06
375.325	0.06
375.686	0.06
376.046	0.06
376.406	0.06
376.766	0.06
377.126	0.06
377.486	0.06
377.846	0.06
378.206	0.06
378.566	0.06
378.926	0.06
379.285	0.06
379.645	0.06
380.005	0.05
380.365	0.06
380.724	0.05
381.084	0.06
381.443	0.06
381.803	0.05
382.163	0.05
382.522	0.05
382.881	0.06
383.241	0.06
383.6	0.06
383.959	0.06
384.319	0.06
384.678	0.06
385.037	0.06
385.396	0.06
385.755	0.06
386.114	0.06
386.473	0.06
386.832	0.06
387.191	0.06
387.55	0.06
387.909	0.06
388.268	0.05
388.627	0.05
388.985	0.05
389.344	0.05
389.703	0.05
390.061	0.05
390.42	0.06
390.778	0.06
391.137	0.06
391.495	0.05
391.854	0.06
392.212	0.06
392.57	0.06
392.929	0.06
393.287	0.06
393.645	0.06
394.003	0.05
394.362	0.05
394.72	0.05
395.078	0.05
395.436	0.05
395.794	0.05
396.152	0.05
396.51	0.05
396.867	0.05
397.225	0.05
397.583	0.05
397.941	0.05
398.298	0.05
398.656	0.06
399.014	0.06
399.371	0.06
399.729	0.06
400.086	0.06
400.444	0.06
400.801	0.06
401.159	0.06
401.516	0.06
401.873	0.06
402.23	0.06
402.588	0.06
402.945	0.06
403.302	0.06
403.659	0.06
404.016	0.06
404.373	0.06
404.73	0.07
405.087	0.07
405.444	0.07
405.801	0.08
406.158	0.11
406.514	0.14
406.871	0.18
407.228	0.2
407.584	0.22
407.941	0.23
408.298	0.23
408.654	0.24
409.011	0.24
409.367	0.24
409.723	0.23
410.08	0.21
410.436	0.18
410.792	0.15
411.149	0.12
411.505	0.11
411.861	0.1
412.217	0.1
412.573	0.1
412.929	0.1
413.285	0.1
413.641	0.1
413.997	0.09
414.353	0.09
414.709	0.09
415.065	0.1
415.42	0.1
415.776	0.1
416.132	0.1
416.487	0.1
416.843	0.1
417.199	0.1
417.554	0.1
417.91	0.11
418.265	0.11
418.62	0.11
418.976	0.11
419.331	0.12
419.686	0.12
420.042	0.12
420.397	0.13
420.752	0.13
421.107	0.13
421.462	0.14
421.817	0.14
422.172	0.14
422.527	0.14
422.882	0.15
423.237	0.15
423.592	0.16
423.946	0.16
424.301	0.17
424.656	0.17
425.01	0.18
425.365	0.18
425.72	0.19
426.074	0.19
426.429	0.2
426.783	0.2
427.137	0.21
427.492	0.22
427.846	0.22
428.2	0.23
428.555	0.24
428.909	0.24
429.263	0.25
429.617	0.26
429.971	0.27
430.325	0.28
430.679	0.29
431.033	0.3
431.387	0.31
431.741	0.32
432.095	0.34
432.449	0.35
432.802	0.37
433.156	0.38
433.51	0.4
433.863	0.42
434.217	0.44
434.571	0.45
434.924	0.48
435.278	0.5
435.631	0.52
435.984	0.55
436.338	0.58
436.691	0.62
437.044	0.7
437.397	0.83
437.751	0.98
438.104	1.13
438.457	1.24
438.81	1.33
439.163	1.4
439.516	1.46
439.869	1.51
440.222	1.56
440.575	1.59
440.927	1.59
441.28	1.55
441.633	1.49
441.986	1.44
442.338	1.43
442.691	1.45
443.043	1.49
443.396	1.55
443.748	1.62
444.101	1.7
444.453	1.79
444.805	1.89
445.158	1.99
445.51	2.09
445.862	2.2
446.214	2.32
446.567	2.45
446.919	2.58
447.271	2.71
447.623	2.86
447.975	3
448.327	3.16
448.679	3.33
449.03	3.49
449.382	3.67
449.734	3.86
450.086	4.04
450.437	4.24
450.789	4.46
451.141	4.68
451.492	4.92
451.844	5.15
452.195	5.4
452.547	5.66
452.898	5.93
453.249	6.22
453.601	6.52
453.952	6.84
454.303	7.18
454.654	7.52
455.005	7.87
455.357	8.25
455.708	8.64
456.059	9.05
456.41	9.48
456.76	9.92
457.111	10.38
457.462	10.86
457.813	11.35
458.164	11.84
458.515	12.37
458.865	12.92
459.216	13.47
459.566	13.99
459.917	14.47
460.267	14.88
460.618	15.23
460.968	15.55
461.319	15.82
461.669	16.03
462.019	16.17
462.37	16.22
462.72	16.22
463.07	16.19
463.42	16.15
463.77	16.1
464.12	16.07
464.47	16.01
464.82	15.96
465.17	15.9
465.52	15.83
465.87	15.77
466.22	15.72
466.569	15.66
466.919	15.56
467.269	15.43
467.618	15.34
467.968	15.21
468.318	15.11
468.667	14.96
469.017	14.82
469.366	14.69
469.715	14.57
470.065	14.42
470.414	14.28
470.763	14.14
471.112	14
471.462	13.86
471.811	13.7
472.16	13.54
472.509	13.4
472.858	13.28
473.207	13.13
473.556	12.98
473.905	12.84
474.253	12.68
474.602	12.54
474.951	12.4
475.3	12.24
475.648	12.12
475.997	11.97
476.345	11.84
476.694	11.68
477.042	11.55
477.391	11.42
477.739	11.29
478.088	11.17
478.436	11.05
478.784	10.94
479.132	10.83
479.481	10.72
479.829	10.62
480.177	10.5
480.525	10.41
480.873	10.31
481.221	10.2
481.569	10.1
481.917	10.01
482.265	9.91
482.612	9.83
482.96	9.75
483.308	9.67
483.656	9.59
484.003	9.52
484.351	9.44
484.698	9.38
485.046	9.32
485.393	9.26
485.741	9.22
486.088	9.17
486.435	9.12
486.783	9.07
487.13	9.03
487.477	9
487.824	8.96
488.171	8.93
488.518	8.9
488.866	8.86
489.212	8.84
489.559	8.81
489.906	8.78
490.253	8.75
490.6	8.72
490.947	8.69
491.294	8.67
491.64	8.64
491.987	8.62
492.333	8.59
492.68	8.57
493.027	8.55
493.373	8.52
493.719	8.51
494.066	8.49
494.412	8.47
494.759	8.45
495.105	8.43
495.451	8.41
495.797	8.39
496.143	8.37
496.489	8.35
496.835	8.33
497.181	8.31
497.527	8.3
497.873	8.28
498.219	8.26
498.565	8.25
498.911	8.22
499.257	8.19
499.602	8.14
499.948	8.06
500.294	7.97
500.639	7.86
500.985	7.74
501.33	7.59
501.676	7.44
502.021	7.27
502.366	7.07
502.712	6.87
503.057	6.67
503.402	6.47
503.747	6.28
504.092	6.1
504.438	5.91
504.783	5.74
505.128	5.57
505.473	5.4
505.817	5.24
506.162	5.08
506.507	4.93
506.852	4.79
507.197	4.65
507.541	4.51
507.886	4.38
508.231	4.25
508.575	4.13
508.92	4.01
509.264	3.89
509.609	3.78
509.953	3.67
510.297	3.56
510.642	3.46
510.986	3.36
511.33	3.27
511.674	3.17
512.019	3.08
512.363	2.99
512.707	2.91
513.051	2.82
513.395	2.74
513.739	2.66
514.083	2.58
514.426	2.5
514.77	2.43
515.114	2.35
515.458	2.28
515.801	2.21
516.145	2.15
516.488	2.08
516.832	2.02
517.175	1.96
517.519	1.9
517.862	1.84
518.206	1.78
518.549	1.73
518.892	1.68
519.235	1.63
519.579	1.58
519.922	1.53
520.265	1.49
520.608	1.44
520.951	1.4
521.294	1.36
521.637	1.32
521.98	1.28
522.323	1.25
522.665	1.21
523.008	1.18
523.351	1.14
523.693	1.11
524.036	1.08
524.379	1.05
524.721	1.02
525.064	0.99
525.406	0.96
525.748	0.94
526.091	0.91
526.433	0.89
526.775	0.86
527.118	0.84
527.46	0.82
527.802	0.8
528.144	0.78
528.486	0.76
528.828	0.74
529.17	0.72
529.512	0.7
529.854	0.68
530.195	0.67
530.537	0.65
530.879	0.63
531.221	0.62
531.562	0.6
531.904	0.59
532.245	0.57
532.587	0.56
532.928	0.55
533.27	0.53
533.611	0.52
533.953	0.51
534.294	0.49
534.635	0.48
534.976	0.48
535.317	0.47
535.659	0.46
536	0.45
536.341	0.44
536.682	0.44
537.023	0.43
537.363	0.42
537.704	0.42
538.045	0.41
538.386	0.41
538.727	0.4
539.067	0.4
539.408	0.4
539.748	0.41
540.089	0.42
540.429	0.43
540.77	0.44
541.11	0.46
541.451	0.48
541.791	0.51
542.131	0.55
542.471	0.6
542.812	0.68
543.152	0.77
543.492	0.88
543.832	0.99
544.172	1.11
544.512	1.22
544.852	1.33
545.192	1.42
545.531	1.51
545.871	1.59
546.211	1.65
546.551	1.69
546.89	1.71
547.23	1.75
547.57	1.81
547.909	1.89
548.248	1.94
548.588	1.97
548.927	1.97
549.267	1.96
549.606	1.93
549.945	1.89
550.284	1.85
550.623	1.79
550.963	1.7
551.302	1.55
551.641	1.39
551.98	1.24
552.319	1.12
552.657	1.02
552.996	0.93
553.335	0.86
553.674	0.79
554.013	0.72
554.351	0.67
554.69	0.62
555.028	0.57
555.367	0.53
555.705	0.5
556.044	0.46
556.382	0.43
556.721	0.4
557.059	0.37
557.397	0.35
557.735	0.32
558.074	0.3
558.412	0.28
558.75	0.26
559.088	0.24
559.426	0.23
559.764	0.21
560.102	0.2
560.439	0.19
560.777	0.18
561.115	0.17
561.453	0.16
561.79	0.16
562.128	0.15
562.466	0.15
562.803	0.14
563.141	0.14
563.478	0.14
563.816	0.13
564.153	0.13
564.49	0.13
564.827	0.13
565.165	0.12
565.502	0.12
565.839	0.12
566.176	0.12
566.513	0.12
566.85	0.11
567.187	0.11
567.524	0.11
567.861	0.11
568.198	0.11
568.534	0.1
568.871	0.1
569.208	0.1
569.544	0.1
569.881	0.1
570.218	0.1
570.554	0.1
570.891	0.1
571.227	0.1
571.563	0.1
571.9	0.1
572.236	0.09
572.572	0.09
572.908	0.09
573.244	0.09
573.581	0.09
573.917	0.09
574.253	0.09
574.588	0.09
574.924	0.09
575.26	0.08
575.596	0.08
575.932	0.08
576.268	0.08
576.603	0.09
576.939	0.09
577.274	0.09
577.61	0.09
577.946	0.09
578.281	0.11
578.616	0.12
578.952	0.14
579.287	0.16
579.622	0.17
579.958	0.19
580.293	0.2
580.628	0.23
580.963	0.25
581.298	0.27
581.633	0.29
581.968	0.3
582.303	0.3
582.638	0.3
582.973	0.31
583.307	0.31
583.642	0.32
583.977	0.32
584.311	0.33
584.646	0.33
584.98	0.33
585.315	0.34
585.649	0.34
585.984	0.35
586.318	0.36
586.652	0.37
586.987	0.38
587.321	0.39
587.655	0.39
587.989	0.39
588.323	0.4
588.657	0.4
588.991	0.41
589.325	0.42
589.659	0.42
589.993	0.43
590.327	0.43
590.661	0.42
590.994	0.42
591.328	0.42
591.662	0.41
591.995	0.4
592.329	0.38
592.662	0.36
592.996	0.34
593.329	0.32
593.662	0.31
593.996	0.3
594.329	0.29
594.662	0.3
594.995	0.3
595.328	0.31
595.661	0.32
595.994	0.32
596.327	0.32
596.66	0.32
596.993	0.32
597.326	0.31
597.659	0.3
597.992	0.29
598.324	0.27
598.657	0.25
598.99	0.23
599.322	0.22
599.655	0.2
599.987	0.19
600.32	0.19
600.652	0.19
600.984	0.19
601.317	0.2
601.649	0.2
601.981	0.21
602.313	0.21
602.645	0.22
602.977	0.22
603.309	0.22
603.641	0.22
603.973	0.21
604.305	0.21
604.637	0.2
604.969	0.19
605.3	0.18
605.632	0.17
605.964	0.16
606.295	0.15
606.627	0.14
606.958	0.14
607.29	0.13
607.621	0.13
607.952	0.13
608.284	0.14
608.615	0.14
608.946	0.14
609.277	0.15
609.609	0.15
609.94	0.16
610.271	0.17
610.602	0.19
610.933	0.21
611.263	0.24
611.594	0.27
611.925	0.34
612.256	0.44
612.587	0.6
612.917	0.8
613.248	1.03
613.578	1.24
613.909	1.43
614.239	1.59
614.57	1.72
614.9	1.83
615.23	1.91
615.561	1.96
615.891	1.95
616.221	1.88
616.551	1.74
616.881	1.57
617.211	1.41
617.541	1.26
617.871	1.13
618.201	1.02
618.531	0.92
618.861	0.83
619.191	0.74
619.52	0.66
619.85	0.6
620.18	0.54
620.509	0.48
620.839	0.44
621.168	0.4
621.498	0.38
621.827	0.36
622.157	0.34
622.486	0.33
622.815	0.32
623.144	0.32
623.473	0.32
623.803	0.32
624.132	0.32
624.461	0.32
624.79	0.33
625.119	0.33
625.447	0.33
625.776	0.33
626.105	0.33
626.434	0.33
626.762	0.33
627.091	0.33
627.42	0.33
627.748	0.32
628.077	0.32
628.405	0.32
628.734	0.32
629.062	0.32
629.39	0.32
629.719	0.31
630.047	0.31
630.375	0.3
630.703	0.3
631.031	0.3
631.359	0.29
631.687	0.29
632.015	0.3
632.343	0.3
632.671	0.32
632.999	0.33
633.326	0.34
633.654	0.35
633.982	0.35
634.309	0.35
634.637	0.35
634.964	0.34
635.292	0.33
635.619	0.31
635.947	0.28
636.274	0.25
636.601	0.22
636.928	0.2
637.256	0.17
637.583	0.15
637.91	0.14
638.237	0.12
638.564	0.11
638.891	0.11
639.218	0.1
639.544	0.1
639.871	0.1
640.198	0.09
640.525	0.09
640.851	0.09
641.178	0.09
641.504	0.09
641.831	0.09
642.157	0.09
642.484	0.09
642.81	0.09
643.137	0.09
643.463	0.09
643.789	0.09
644.115	0.09
644.441	0.09
644.767	0.09
645.093	0.09
645.419	0.09
645.745	0.09
646.071	0.09
646.397	0.09
646.723	0.09
647.049	0.09
647.374	0.09
647.7	0.09
648.026	0.09
648.351	0.1
648.677	0.09
649.002	0.1
649.328	0.1
649.653	0.1
649.978	0.1
650.303	0.1
650.629	0.1
650.954	0.1
651.279	0.1
651.604	0.1
651.929	0.11
652.254	0.12
652.579	0.12
652.904	0.13
653.229	0.14
653.554	0.14
653.878	0.15
654.203	0.15
654.528	0.15
654.852	0.16
655.177	0.15
655.501	0.15
655.826	0.14
656.15	0.14
656.474	0.13
656.799	0.13
657.123	0.13
657.447	0.12
657.771	0.12
658.096	0.11
658.42	0.11
658.744	0.11
659.068	0.11
659.392	0.1
659.715	0.1
660.039	0.1
660.363	0.1
660.687	0.1
661.01	0.1
661.334	0.1
661.658	0.1
661.981	0.1
662.305	0.1
662.628	0.09
662.952	0.09
663.275	0.09
663.598	0.09
663.921	0.09
664.245	0.09
664.568	0.1
664.891	0.1
665.214	0.1
665.537	0.11
665.86	0.11
666.183	0.11
666.506	0.11
666.828	0.11
667.151	0.11
667.474	0.11
667.797	0.1
668.119	0.1
668.442	0.1
668.764	0.09
669.087	0.09
669.409	0.09
669.732	0.09
670.054	0.09
670.376	0.09
670.698	0.09
671.021	0.09
671.343	0.09
671.665	0.08
671.987	0.08
672.309	0.08
672.631	0.08
672.953	0.08
673.275	0.08
673.596	0.08
673.918	0.08
674.24	0.08
674.561	0.07
674.883	0.07
675.205	0.07
675.526	0.07
675.848	0.07
676.169	0.07
676.49	0.07
676.812	0.07
677.133	0.07
677.454	0.07
677.775	0.07
678.096	0.07
678.417	0.07
678.739	0.07
679.059	0.07
679.38	0.07
679.701	0.07
680.022	0.07
680.343	0.07
680.664	0.07
680.984	0.07
681.305	0.07
681.625	0.07
681.946	0.07
682.266	0.07
682.587	0.07
682.907	0.07
683.228	0.07
683.548	0.07
683.868	0.07
684.188	0.07
684.508	0.07
684.829	0.07
685.149	0.07
685.469	0.07
685.789	0.07
686.108	0.07
686.428	0.07
686.748	0.07
687.068	0.07
687.387	0.07
687.707	0.07
688.027	0.07
688.346	0.07
688.666	0.08
688.985	0.08
689.305	0.08
689.624	0.09
689.943	0.09
690.263	0.1
690.582	0.1
690.901	0.1
691.22	0.1
691.539	0.1
691.858	0.1
692.177	0.1
692.496	0.09
692.815	0.09
693.134	0.09
693.452	0.08
693.771	0.08
694.09	0.07
694.408	0.07
694.727	0.07
695.045	0.07
695.364	0.07
695.682	0.07
696.001	0.07
696.319	0.07
696.637	0.07
696.956	0.07
697.274	0.07
697.592	0.07
697.91	0.07
698.228	0.07
698.546	0.07
698.864	0.07
699.182	0.06
699.499	0.06
699.817	0.06
700.135	0.05
700.453	0.05
700.77	0.05
701.088	0.05
701.405	0.05
701.723	0.05
702.04	0.05
702.358	0.05
702.675	0.04
702.992	0.05
703.31	0.04
703.627	0.05
703.944	0.05
704.261	0.05
704.578	0.05
704.895	0.05
705.212	0.04
705.529	0.05
705.846	0.05
706.162	0.05
706.479	0.05
706.796	0.06
707.112	0.06
707.429	0.07
707.746	0.08
708.062	0.09
708.378	0.1
708.695	0.12
709.011	0.13
709.327	0.14
709.644	0.15
709.96	0.17
710.276	0.17
710.592	0.19
710.908	0.2
711.224	0.2
711.54	0.2
711.856	0.2
712.172	0.19
712.488	0.18
712.803	0.17
713.119	0.17
713.435	0.16
713.75	0.17
714.066	0.16
714.381	0.16
714.697	0.16
715.012	0.15
715.327	0.16
715.643	0.15
715.958	0.15
716.273	0.15
716.588	0.15
716.903	0.13
717.218	0.12
717.533	0.11
717.848	0.1
718.163	0.09
718.478	0.08
718.793	0.07
719.108	0.06
719.422	0.06
719.737	0.06
720.052	0.06
720.366	0.05
720.681	0.05
720.995	0.05
721.309	0.05
721.624	0.05
721.938	0.05
722.252	0.05
722.566	0.04
722.881	0.04
723.195	0.04
723.509	0.04
723.823	0.04
724.137	0.04
724.45	0.04
724.764	0.04
725.078	0.04
725.392	0.04
725.706	0.04
726.019	0.04
726.333	0.05
726.646	0.05
726.96	0.05
727.273	0.05
727.587	0.05
727.9	0.04
728.213	0.04
728.526	0.04
728.84	0.04
729.153	0.04
729.466	0.04
729.779	0.04
730.092	0.03
730.405	0.03
730.718	0.04
731.03	0.04
731.343	0.04
731.656	0.04
731.969	0.04
732.281	0.04
732.594	0.04
732.906	0.05
733.219	0.05
733.531	0.05
733.844	0.05
734.156	0.05
734.468	0.05
734.78	0.05
735.093	0.04
735.405	0.04
735.717	0.04
736.029	0.04
736.341	0.03
736.653	0.03
736.965	0.03
737.276	0.03
737.588	0.03
737.9	0.03
738.211	0.04
738.523	0.04
738.835	0.04
739.146	0.04
739.458	0.05
739.769	0.05
740.08	0.04
740.392	0.04
740.703	0.04
741.014	0.04
741.325	0.04
741.636	0.04
741.947	0.04
742.258	0.04
742.569	0.04
742.88	0.04
743.191	0.04
743.502	0.04
743.813	0.04
744.123	0.04
744.434	0.04
744.745	0.04
745.055	0.04
745.366	0.04
745.676	0.04
745.987	0.04
746.297	0.04
746.607	0.05
746.917	0.05
747.228	0.05
747.538	0.05
747.848	0.05
748.158	0.06
748.468	0.06
748.778	0.05
749.088	0.05
749.397	0.05
749.707	0.05
750.017	0.04
750.327	0.04
750.636	0.04
750.946	0.04
751.255	0.04
751.565	0.04
751.874	0.04
752.184	0.04
752.493	0.04
752.802	0.04
753.111	0.05
753.421	0.05
753.73	0.05
754.039	0.05
754.348	0.04
754.657	0.04
754.966	0.04
755.274	0.04
755.583	0.04
755.892	0.04
756.201	0.04
756.509	0.04
756.818	0.05
757.127	0.05
757.435	0.05
757.743	0.05
758.052	0.05
758.36	0.05
758.668	0.06
758.977	0.06
759.285	0.07
759.593	0.06
759.901	0.06
760.209	0.06
760.517	0.05
760.825	0.05
761.133	0.05
761.441	0.05
761.749	0.05
762.056	0.05
762.364	0.05
762.672	0.05
762.979	0.05
763.287	0.05
763.594	0.05
763.902	0.06
764.209	0.06
764.516	0.07
764.823	0.07
765.131	0.07
765.438	0.07
765.745	0.07
766.052	0.07
766.359	0.07
766.666	0.08
766.973	0.07
767.28	0.06
767.587	0.06
767.893	0.05
768.2	0.04
768.507	0.04
768.813	0.04
769.12	0.03
769.426	0.04
769.733	0.04
770.039	0.04
770.345	0.03
770.652	0.03
770.958	0.03
771.264	0.04
771.57	0.04
771.876	0.05
772.182	0.05
772.488	0.06
772.794	0.05
773.1	0.05
773.406	0.05
773.712	0.05
774.017	0.06
774.323	0.06
774.628	0.06
774.934	0.06
775.24	0.05
775.545	0.05
775.85	0.05
776.156	0.06
776.461	0.06
776.766	0.06
777.071	0.06
777.377	0.06
777.682	0.06
777.987	0.07
778.292	0.06
778.597	0.07
778.901	0.07
779.206	0.07
779.511	0.07
779.816	0.07
780.12	0.07
780.425	0.07
780.73	0.06
781.034	0.05
781.339	0.06
781.643	0.07
781.947	0.06
782.252	0.06
782.556	0.06
782.86	0.06
783.164	0.07
783.468	0.07
783.772	0.08
784.076	0.09
784.38	0.11
784.684	0.11
784.988	0.1
785.292	0.11
785.595	0.11
785.899	0.11
786.203	0.1
786.506	0.08
786.81	0.07
787.113	0.07
787.417	0.08
787.72	0.08
788.023	0.07
788.327	0.08
788.63	0.08
788.933	0.1
789.236	0.1
789.539	0.11
789.842	0.13
790.145	0.13
790.448	0.13
790.751	0.13
791.054	0.12
791.356	0.12
791.659	0.11
791.962	0.1
792.264	0.09
792.567	0.08
792.869	0.08
793.172	0.09
793.474	0.08
793.776	0.07
794.078	0.07
794.381	0.08
794.683	0.07
794.985	0.08
795.287	0.08
795.589	0.1
795.891	0.11
796.193	0.11
796.495	0.1
796.796	0.11
797.098	0.11
797.4	0.12
797.701	0.11
798.003	0.12
798.304	0.11
798.606	0.13
798.907	0.12
799.209	0.1
799.51	0.08
799.811	0.08
800.112	0.06
800.414	0.04
800.715	0.03
801.016	0.03
801.317	0.02
801.618	0.03
801.919	0.01
802.219	0.01
802.52	0.03
802.821	0.04
803.122	0.05
803.422	0.07
803.723	0.08
804.023	0.09
804.324	0.08
804.624	0.09
804.924	0.08
805.225	0.08
805.525	0.09
805.825	0.09
806.125	0.09
806.425	0.09
806.725	0.07
807.025	0.07
807.325	0.08
807.625	0.09
807.925	0.09
808.225	0.1
808.525	0.09
808.824	0.07
809.124	0.05
809.423	0.05
809.723	0.06
810.022	0.08
810.322	0.09
810.621	0.08
810.92	0.09
811.22	0.07
811.519	0.07
811.818	0.08
812.117	0.11
812.416	0.13
812.715	0.14
813.014	0.12
813.313	0.11
813.612	0.12
813.91	0.15
814.209	0.13
814.508	0.15
814.806	0.16
815.105	0.14
815.403	0.13
815.702	0.12
816	0.12
816.298	0.14
816.597	0.15
816.895	0.13
817.193	0.09
817.491	0.09
817.789	0.07
818.087	0.09
818.385	0.09
818.683	0.09
818.981	0.09
819.279	0.08
819.577	0.07
819.874	0.07
820.172	0.06
820.469	0.09
820.767	0.07
821.064	0.11
821.362	0.09
821.659	0.11
821.957	0.1
822.254	0.13
822.551	0.12
822.848	0.15
823.145	0.14
823.442	0.14
823.739	0.15
824.036	0.18
824.333	0.14
824.63	0.14
824.927	0.12
825.223	0.15
825.52	0.15
825.817	0.12
826.113	0.1
826.41	0.08
826.706	0.08
827.003	0.09
827.299	0.09
827.595	0.11
827.892	0.1
828.188	0.14
828.484	0.12
828.78	0.08
829.076	0.11
829.372	0.13
829.668	0.15
829.964	0.15
830.26	0.13
830.555	0.14
830.851	0.16
831.147	0.16
831.442	0.12
831.738	0.14
832.033	0.17
832.329	0.14
832.624	0.16
832.919	0.18
833.215	0.2
833.51	0.21
833.805	0.22
834.1	0.21
834.395	0.25
834.69	0.29
834.985	0.3
835.28	0.29
835.575	0.34
835.87	0.32
836.164	0.27
836.459	0.24
836.754	0.24
837.048	0.25
837.343	0.24
837.637	0.21
837.932	0.18
838.226	0.15
838.52	0.14
838.814	0.13
839.109	0.14
839.403	0.15
839.697	0.17
839.991	0.14
840.285	0.12
840.579	0.06
840.873	0.05
841.166	0.02
841.46	0.03
841.754	0.06
842.047	0.07
842.341	0.07
842.635	0.05
842.928	0.08
843.222	0.12
843.515	0.16
843.808	0.24
844.101	0.3
844.395	0.3
844.688	0.3
844.981	0.24
845.274	0.24
845.567	0.26
845.86	0.29
846.153	0.27
846.446	0.26
846.738	0.24
847.031	0.23
847.324	0.17
847.616	0.18
847.909	0.19
848.201	0.23
848.494	0.22
848.786	0.18
849.079	0.22
849.371	0.25
849.663	0.23
849.955	0.22
850.247	0.23
850.539	0.25
850.831	0.31
851.123	0.29
851.415	0.28
851.707	0.34
851.999	0.34
852.291	0.29
852.582	0.3
852.874	0.28
853.166	0.31
853.457	0.33
853.749	0.28
854.04	0.23
854.331	0.3
854.623	0.29
854.914	0.29
855.205	0.38
855.496	0.39
855.787	0.36
856.078	0.39
856.369	0.45
856.66	0.41
856.951	0.5
857.242	0.57
857.533	0.52
857.823	0.6
858.114	0.57
858.404	0.57
858.695	0.56
858.985	0.57
859.276	0.54
859.566	0.45
859.857	0.49
860.147	0.47
860.437	0.49
860.727	0.44
861.017	0.34
861.307	0.27
861.597	0.18
861.887	0.02
862.177	0.15
862.467	0.31
862.757	0.31
863.046	0.38
863.336	0.32
863.626	0.24
863.915	0.44
864.205	0.44
864.494	0.49
864.783	0.58
865.073	0.86
865.362	0.67
865.651	0.53
865.94	0.6
866.229	0.53
866.518	0.6
866.807	0.69
867.096	0.55
867.385	0.64
867.674	0.71
867.963	0.66
868.252	0.6
868.54	0.75
868.829	0.83
869.117	0.83
869.406	0.85
869.694	0.99
869.983	0.94
870.271	0.97
870.559	1
