Data from AbsoluteIrradiance__0__17-10-30-878.txt Node

Date: Fri Jul 22 17:10:30 EDT 2022
User: enochs
Spectrometer: FLMS17410
Trigger mode: 0
Integration Time (sec): 1.545400E-1
Scans to average: 5
Electric dark correction enabled: true
Nonlinearity correction enabled: true
Boxcar width: 5
XAxis mode: Wavelengths
Number of Pixels in Spectrum: 2048
>>>>>Begin Spectral Data<<<<<
179.501	0
179.881	0
180.261	0
180.64	0
181.02	0
181.399	0
181.779	0
182.158	0
182.537	0
182.917	0
183.296	0
183.675	0
184.055	-0
184.434	0
184.813	-0
185.192	-0
185.571	-0
185.95	0
186.329	0
186.708	0
187.087	0
187.466	0
187.845	0
188.224	0
188.603	0
188.982	0
189.361	0
189.739	0
190.118	0
190.497	0
190.875	0
191.254	0
191.632	0
192.011	0
192.39	0
192.768	0
193.146	0
193.525	0
193.903	0
194.282	0
194.66	0
195.038	0
195.416	0
195.794	0
196.173	0
196.551	0
196.929	0
197.307	0
197.685	0
198.063	0
198.441	0
198.819	0
199.197	0
199.575	0
199.952	0
200.33	23.6
200.708	22.29
201.086	20.86
201.463	19.94
201.841	18.77
202.218	18.1
202.596	17.09
202.974	16.34
203.351	15.78
203.729	14.96
204.106	14.15
204.483	13.36
204.861	12.52
205.238	11.93
205.615	11.05
205.993	10.58
206.37	10.08
206.747	9.84
207.124	9.43
207.501	9.06
207.878	8.59
208.255	8.18
208.632	7.81
209.009	7.48
209.386	7.19
209.763	6.87
210.14	6.42
210.517	6.17
210.894	5.89
211.271	5.54
211.647	5.29
212.024	5.06
212.401	4.8
212.777	4.7
213.154	4.61
213.531	4.47
213.907	4.37
214.284	4.33
214.66	4.16
215.036	4.01
215.413	3.94
215.789	3.85
216.166	3.85
216.542	3.81
216.918	3.61
217.294	3.56
217.67	3.49
218.047	3.37
218.423	3.17
218.799	3.06
219.175	2.93
219.551	2.91
219.927	2.88
220.303	2.74
220.679	2.65
221.054	2.63
221.43	2.57
221.806	2.51
222.182	2.5
222.558	2.56
222.933	2.57
223.309	2.58
223.685	2.53
224.06	2.47
224.436	2.43
224.811	2.4
225.187	2.31
225.562	2.27
225.938	2.25
226.313	2.2
226.688	2.13
227.064	2.05
227.439	2.05
227.814	1.97
228.189	1.92
228.564	1.86
228.94	1.83
229.315	1.79
229.69	1.74
230.065	1.67
230.44	1.64
230.815	1.62
231.19	1.62
231.564	1.55
231.939	1.55
232.314	1.53
232.689	1.53
233.064	1.51
233.438	1.5
233.813	1.48
234.188	1.46
234.562	1.42
234.937	1.38
235.311	1.35
235.686	1.31
236.06	1.28
236.435	1.25
236.809	1.21
237.183	1.17
237.558	1.14
237.932	1.13
238.306	1.12
238.68	1.11
239.055	1.09
239.429	1.07
239.803	1.07
240.177	1.07
240.551	1.05
240.925	1.03
241.299	1.03
241.673	1.01
242.047	0.98
242.42	0.95
242.794	0.91
243.168	0.91
243.542	0.9
243.915	0.88
244.289	0.85
244.663	0.84
245.036	0.82
245.41	0.8
245.783	0.78
246.157	0.77
246.53	0.77
246.904	0.75
247.277	0.71
247.651	0.7
248.024	0.69
248.397	0.69
248.77	0.68
249.144	0.66
249.517	0.65
249.89	0.64
250.263	0.64
250.636	0.62
251.009	0.61
251.382	0.61
251.755	0.6
252.128	0.59
252.501	0.58
252.874	0.56
253.246	0.55
253.619	0.54
253.992	0.53
254.365	0.51
254.737	0.51
255.11	0.5
255.483	0.5
255.855	0.47
256.228	0.47
256.6	0.45
256.973	0.45
257.345	0.44
257.717	0.43
258.09	0.42
258.462	0.41
258.834	0.41
259.206	0.4
259.579	0.4
259.951	0.41
260.323	0.41
260.695	0.42
261.067	0.42
261.439	0.42
261.811	0.41
262.183	0.42
262.555	0.42
262.927	0.41
263.299	0.41
263.67	0.41
264.042	0.4
264.414	0.39
264.786	0.38
265.157	0.37
265.529	0.38
265.9	0.38
266.272	0.38
266.643	0.38
267.015	0.38
267.386	0.38
267.758	0.38
268.129	0.38
268.5	0.38
268.872	0.37
269.243	0.36
269.614	0.36
269.985	0.36
270.357	0.35
270.728	0.35
271.099	0.34
271.47	0.34
271.841	0.33
272.212	0.33
272.583	0.33
272.953	0.32
273.324	0.32
273.695	0.32
274.066	0.32
274.437	0.32
274.807	0.32
275.178	0.32
275.549	0.32
275.919	0.31
276.29	0.31
276.66	0.31
277.031	0.31
277.401	0.31
277.772	0.31
278.142	0.31
278.512	0.31
278.883	0.31
279.253	0.3
279.623	0.3
279.993	0.3
280.364	0.29
280.734	0.28
281.104	0.28
281.474	0.27
281.844	0.27
282.214	0.26
282.584	0.27
282.954	0.26
283.323	0.26
283.693	0.25
284.063	0.25
284.433	0.26
284.802	0.26
285.172	0.26
285.542	0.26
285.911	0.25
286.281	0.25
286.65	0.25
287.02	0.25
287.389	0.25
287.759	0.26
288.128	0.25
288.498	0.25
288.867	0.25
289.236	0.25
289.605	0.25
289.975	0.25
290.344	0.24
290.713	0.24
291.082	0.24
291.451	0.24
291.82	0.24
292.189	0.23
292.558	0.24
292.927	0.24
293.296	0.24
293.664	0.23
294.033	0.23
294.402	0.23
294.771	0.23
295.139	0.23
295.508	0.23
295.877	0.23
296.245	0.23
296.614	0.23
296.982	0.23
297.351	0.22
297.719	0.23
298.087	0.23
298.456	0.23
298.824	0.22
299.192	0.22
299.561	0.22
299.929	0.21
300.297	0.21
300.665	0.21
301.033	0.21
301.401	0.21
301.769	0.2
302.137	0.2
302.505	0.2
302.873	0.2
303.241	0.2
303.609	0.2
303.976	0.2
304.344	0.2
304.712	0.2
305.079	0.2
305.447	0.2
305.815	0.21
306.182	0.21
306.55	0.2
306.917	0.2
307.285	0.2
307.652	0.2
308.019	0.2
308.387	0.2
308.754	0.19
309.121	0.19
309.489	0.18
309.856	0.18
310.223	0.18
310.59	0.18
310.957	0.18
311.324	0.17
311.691	0.18
312.058	0.18
312.425	0.18
312.792	0.18
313.159	0.18
313.525	0.18
313.892	0.18
314.259	0.18
314.626	0.18
314.992	0.18
315.359	0.18
315.725	0.17
316.092	0.17
316.459	0.17
316.825	0.17
317.191	0.17
317.558	0.17
317.924	0.17
318.29	0.16
318.657	0.16
319.023	0.16
319.389	0.16
319.755	0.17
320.121	0.17
320.488	0.17
320.854	0.17
321.22	0.17
321.586	0.17
321.952	0.17
322.317	0.17
322.683	0.17
323.049	0.17
323.415	0.16
323.781	0.16
324.146	0.16
324.512	0.16
324.878	0.16
325.243	0.16
325.609	0.16
325.974	0.16
326.34	0.16
326.705	0.16
327.071	0.16
327.436	0.17
327.801	0.16
328.167	0.16
328.532	0.16
328.897	0.16
329.262	0.16
329.627	0.16
329.992	0.15
330.357	0.15
330.722	0.15
331.087	0.15
331.452	0.15
331.817	0.15
332.182	0.14
332.547	0.14
332.912	0.15
333.277	0.14
333.641	0.14
334.006	0.14
334.371	0.14
334.735	0.14
335.1	0.14
335.464	0.14
335.829	0.14
336.193	0.14
336.558	0.14
336.922	0.14
337.286	0.14
337.651	0.14
338.015	0.14
338.379	0.14
338.743	0.15
339.107	0.14
339.471	0.14
339.836	0.14
340.2	0.14
340.564	0.14
340.927	0.14
341.291	0.14
341.655	0.14
342.019	0.14
342.383	0.14
342.747	0.14
343.11	0.14
343.474	0.14
343.838	0.14
344.201	0.14
344.565	0.14
344.928	0.14
345.292	0.14
345.655	0.14
346.019	0.14
346.382	0.14
346.745	0.14
347.109	0.14
347.472	0.13
347.835	0.13
348.198	0.13
348.561	0.13
348.925	0.13
349.288	0.13
349.651	0.13
350.014	0.13
350.377	0.13
350.739	0.13
351.102	0.13
351.465	0.13
351.828	0.13
352.191	0.13
352.553	0.13
352.916	0.13
353.279	0.13
353.641	0.13
354.004	0.13
354.366	0.13
354.729	0.13
355.091	0.12
355.454	0.12
355.816	0.13
356.178	0.13
356.541	0.13
356.903	0.13
357.265	0.13
357.627	0.13
357.989	0.13
358.351	0.13
358.714	0.13
359.076	0.13
359.437	0.13
359.799	0.13
360.161	0.13
360.523	0.13
360.885	0.13
361.247	0.13
361.608	0.13
361.97	0.13
362.332	0.13
362.693	0.13
363.055	0.13
363.417	0.13
363.778	0.13
364.14	0.12
364.501	0.13
364.862	0.12
365.224	0.13
365.585	0.13
365.946	0.12
366.307	0.12
366.669	0.12
367.03	0.12
367.391	0.13
367.752	0.12
368.113	0.12
368.474	0.12
368.835	0.13
369.196	0.13
369.557	0.13
369.918	0.13
370.278	0.13
370.639	0.13
371	0.13
371.361	0.13
371.721	0.13
372.082	0.13
372.442	0.13
372.803	0.13
373.163	0.13
373.524	0.13
373.884	0.13
374.245	0.13
374.605	0.14
374.965	0.14
375.325	0.14
375.686	0.14
376.046	0.14
376.406	0.14
376.766	0.14
377.126	0.14
377.486	0.14
377.846	0.14
378.206	0.14
378.566	0.14
378.926	0.14
379.285	0.14
379.645	0.14
380.005	0.14
380.365	0.14
380.724	0.15
381.084	0.15
381.443	0.15
381.803	0.15
382.163	0.16
382.522	0.16
382.881	0.16
383.241	0.17
383.6	0.17
383.959	0.18
384.319	0.19
384.678	0.19
385.037	0.2
385.396	0.21
385.755	0.22
386.114	0.23
386.473	0.24
386.832	0.25
387.191	0.27
387.55	0.29
387.909	0.31
388.268	0.33
388.627	0.35
388.985	0.37
389.344	0.41
389.703	0.44
390.061	0.47
390.42	0.51
390.778	0.55
391.137	0.59
391.495	0.64
391.854	0.69
392.212	0.74
392.57	0.8
392.929	0.86
393.287	0.93
393.645	1
394.003	1.08
394.362	1.16
394.72	1.25
395.078	1.35
395.436	1.45
395.794	1.56
396.152	1.68
396.51	1.8
396.867	1.93
397.225	2.06
397.583	2.2
397.941	2.35
398.298	2.51
398.656	2.67
399.014	2.83
399.371	3.01
399.729	3.19
400.086	3.37
400.444	3.56
400.801	3.75
401.159	3.96
401.516	4.16
401.873	4.37
402.23	4.58
402.588	4.79
402.945	5.01
403.302	5.23
403.659	5.45
404.016	5.67
404.373	5.9
404.73	6.13
405.087	6.35
405.444	6.58
405.801	6.81
406.158	7.05
406.514	7.3
406.871	7.54
407.228	7.77
407.584	7.99
407.941	8.2
408.298	8.39
408.654	8.57
409.011	8.75
409.367	8.92
409.723	9.06
410.08	9.2
410.436	9.31
410.792	9.41
411.149	9.52
411.505	9.63
411.861	9.73
412.217	9.84
412.573	9.95
412.929	10.05
413.285	10.14
413.641	10.24
413.997	10.34
414.353	10.43
414.709	10.52
415.065	10.63
415.42	10.72
415.776	10.82
416.132	10.92
416.487	11.03
416.843	11.15
417.199	11.28
417.554	11.42
417.91	11.56
418.265	11.72
418.62	11.9
418.976	12.08
419.331	12.28
419.686	12.49
420.042	12.72
420.397	12.96
420.752	13.22
421.107	13.49
421.462	13.77
421.817	14.05
422.172	14.33
422.527	14.63
422.882	14.93
423.237	15.24
423.592	15.54
423.946	15.84
424.301	16.13
424.656	16.39
425.01	16.64
425.365	16.87
425.72	17.1
426.074	17.29
426.429	17.45
426.783	17.58
427.137	17.69
427.492	17.75
427.846	17.79
428.2	17.79
428.555	17.77
428.909	17.72
429.263	17.65
429.617	17.55
429.971	17.45
430.325	17.31
430.679	17.17
431.033	17.02
431.387	16.86
431.741	16.71
432.095	16.56
432.449	16.41
432.802	16.29
433.156	16.21
433.51	16.14
433.863	16.08
434.217	16.07
434.571	16.09
434.924	16.14
435.278	16.22
435.631	16.34
435.984	16.51
436.338	16.7
436.691	16.86
437.044	17.02
437.397	17.17
437.751	17.32
438.104	17.45
438.457	17.55
438.81	17.62
439.163	17.69
439.516	17.7
439.869	17.68
440.222	17.64
440.575	17.62
440.927	17.6
441.28	17.6
441.633	17.56
441.986	17.55
442.338	17.51
442.691	17.5
443.043	17.44
443.396	17.42
443.748	17.39
444.101	17.4
444.453	17.4
444.805	17.35
445.158	17.31
445.51	17.3
445.862	17.27
446.214	17.25
446.567	17.22
446.919	17.2
447.271	17.14
447.623	17.11
447.975	17.05
448.327	17
448.679	16.97
449.03	16.92
449.382	16.86
449.734	16.82
450.086	16.78
450.437	16.74
450.789	16.73
451.141	16.76
451.492	16.71
451.844	16.7
452.195	16.7
452.547	16.69
452.898	16.7
453.249	16.7
453.601	16.7
453.952	16.68
454.303	16.71
454.654	16.7
455.005	16.64
455.357	16.68
455.708	16.67
456.059	16.64
456.41	16.65
456.76	16.65
457.111	16.64
457.462	16.63
457.813	16.64
458.164	16.62
458.515	16.62
458.865	16.63
459.216	16.6
459.566	16.57
459.917	16.57
460.267	16.54
460.618	16.48
460.968	16.47
461.319	16.44
461.669	16.4
462.019	16.36
462.37	16.28
462.72	16.21
463.07	16.18
463.42	16.14
463.77	16.09
464.12	16.06
464.47	16
464.82	15.95
465.17	15.89
465.52	15.82
465.87	15.76
466.22	15.71
466.569	15.66
466.919	15.55
467.269	15.42
467.618	15.33
467.968	15.2
468.318	15.1
468.667	14.95
469.017	14.81
469.366	14.68
469.715	14.56
470.065	14.41
470.414	14.27
470.763	14.13
471.112	13.99
471.462	13.85
471.811	13.69
472.16	13.54
472.509	13.39
472.858	13.28
473.207	13.12
473.556	12.97
473.905	12.84
474.253	12.67
474.602	12.53
474.951	12.4
475.3	12.23
475.648	12.11
475.997	11.97
476.345	11.83
476.694	11.67
477.042	11.54
477.391	11.41
477.739	11.29
478.088	11.17
478.436	11.05
478.784	10.93
479.132	10.82
479.481	10.71
479.829	10.61
480.177	10.5
480.525	10.4
480.873	10.3
481.221	10.2
481.569	10.1
481.917	10
482.265	9.9
482.612	9.82
482.96	9.74
483.308	9.66
483.656	9.58
484.003	9.51
484.351	9.44
484.698	9.37
485.046	9.32
485.393	9.26
485.741	9.21
486.088	9.17
486.435	9.11
486.783	9.06
487.13	9.03
487.477	8.99
487.824	8.96
488.171	8.93
488.518	8.89
488.866	8.86
489.212	8.83
489.559	8.81
489.906	8.77
490.253	8.74
490.6	8.72
490.947	8.69
491.294	8.66
491.64	8.64
491.987	8.61
492.333	8.59
492.68	8.57
493.027	8.54
493.373	8.52
493.719	8.5
494.066	8.48
494.412	8.46
494.759	8.44
495.105	8.43
495.451	8.4
495.797	8.38
496.143	8.36
496.489	8.35
496.835	8.33
497.181	8.3
497.527	8.27
497.873	8.24
498.219	8.19
498.565	8.13
498.911	8.06
499.257	7.99
499.602	7.91
499.948	7.83
500.294	7.73
500.639	7.63
500.985	7.52
501.33	7.42
501.676	7.32
502.021	7.23
502.366	7.14
502.712	7.07
503.057	6.99
503.402	6.92
503.747	6.86
504.092	6.8
504.438	6.75
504.783	6.71
505.128	6.67
505.473	6.63
505.817	6.6
506.162	6.58
506.507	6.55
506.852	6.53
507.197	6.52
507.541	6.51
507.886	6.5
508.231	6.5
508.575	6.5
508.92	6.5
509.264	6.5
509.609	6.51
509.953	6.52
510.297	6.54
510.642	6.55
510.986	6.57
511.33	6.6
511.674	6.62
512.019	6.64
512.363	6.67
512.707	6.7
513.051	6.73
513.395	6.76
513.739	6.8
514.083	6.83
514.426	6.86
514.77	6.9
515.114	6.93
515.458	6.97
515.801	7.01
516.145	7.05
516.488	7.08
516.832	7.12
517.175	7.16
517.519	7.19
517.862	7.23
518.206	7.26
518.549	7.29
518.892	7.33
519.235	7.36
519.579	7.39
519.922	7.41
520.265	7.44
520.608	7.47
520.951	7.49
521.294	7.51
521.637	7.53
521.98	7.55
522.323	7.56
522.665	7.58
523.008	7.58
523.351	7.6
523.693	7.61
524.036	7.62
524.379	7.63
524.721	7.64
525.064	7.65
525.406	7.66
525.748	7.68
526.091	7.69
526.433	7.7
526.775	7.71
527.118	7.73
527.46	7.74
527.802	7.75
528.144	7.76
528.486	7.76
528.828	7.77
529.17	7.78
529.512	7.79
529.854	7.8
530.195	7.81
530.537	7.82
530.879	7.82
531.221	7.83
531.562	7.84
531.904	7.85
532.245	7.86
532.587	7.87
532.928	7.87
533.27	7.88
533.611	7.89
533.953	7.89
534.294	7.89
534.635	7.89
534.976	7.89
535.317	7.88
535.659	7.88
536	7.88
536.341	7.87
536.682	7.86
537.023	7.85
537.363	7.83
537.704	7.82
538.045	7.81
538.386	7.8
538.727	7.79
539.067	7.78
539.408	7.77
539.748	7.76
540.089	7.76
540.429	7.75
540.77	7.75
541.11	7.75
541.451	7.75
541.791	7.76
542.131	7.77
542.471	7.8
542.812	7.83
543.152	7.87
543.492	7.91
543.832	7.95
544.172	7.99
544.512	8.04
544.852	8.07
545.192	8.11
545.531	8.14
545.871	8.17
546.211	8.19
546.551	8.2
546.89	8.21
547.23	8.21
547.57	8.21
547.909	8.21
548.248	8.22
548.588	8.23
548.927	8.23
549.267	8.22
549.606	8.19
549.945	8.16
550.284	8.13
550.623	8.08
550.963	8.02
551.302	7.95
551.641	7.87
551.98	7.79
552.319	7.7
552.657	7.61
552.996	7.53
553.335	7.46
553.674	7.39
554.013	7.32
554.351	7.26
554.69	7.21
555.028	7.16
555.367	7.12
555.705	7.07
556.044	7.03
556.382	6.99
556.721	6.95
557.059	6.92
557.397	6.89
557.735	6.85
558.074	6.82
558.412	6.79
558.75	6.76
559.088	6.73
559.426	6.71
559.764	6.69
560.102	6.67
560.439	6.65
560.777	6.63
561.115	6.62
561.453	6.6
561.79	6.58
562.128	6.57
562.466	6.56
562.803	6.55
563.141	6.53
563.478	6.52
563.816	6.51
564.153	6.5
564.49	6.49
564.827	6.48
565.165	6.47
565.502	6.46
565.839	6.45
566.176	6.44
566.513	6.44
566.85	6.43
567.187	6.42
567.524	6.41
567.861	6.4
568.198	6.39
568.534	6.38
568.871	6.37
569.208	6.37
569.544	6.36
569.881	6.36
570.218	6.35
570.554	6.34
570.891	6.34
571.227	6.33
571.563	6.32
571.9	6.32
572.236	6.31
572.572	6.3
572.908	6.29
573.244	6.28
573.581	6.27
573.917	6.26
574.253	6.26
574.588	6.25
574.924	6.24
575.26	6.23
575.596	6.23
575.932	6.22
576.268	6.21
576.603	6.21
576.939	6.2
577.274	6.19
577.61	6.18
577.946	6.18
578.281	6.19
578.616	6.2
578.952	6.21
579.287	6.22
579.622	6.22
579.958	6.23
580.293	6.23
580.628	6.24
580.963	6.25
581.298	6.26
581.633	6.27
581.968	6.27
582.303	6.26
582.638	6.25
582.973	6.25
583.307	6.24
583.642	6.24
583.977	6.23
584.311	6.23
584.646	6.22
584.98	6.22
585.315	6.22
585.649	6.21
585.984	6.21
586.318	6.21
586.652	6.21
586.987	6.2
587.321	6.2
587.655	6.2
587.989	6.19
588.323	6.18
588.657	6.18
588.991	6.18
589.325	6.18
589.659	6.18
589.993	6.18
590.327	6.17
590.661	6.16
590.994	6.15
591.328	6.13
591.662	6.12
591.995	6.1
592.329	6.07
592.662	6.04
592.996	6.02
593.329	5.99
593.662	5.96
593.996	5.94
594.329	5.93
594.662	5.92
594.995	5.92
595.328	5.91
595.661	5.91
595.994	5.9
596.327	5.88
596.66	5.87
596.993	5.86
597.326	5.84
597.659	5.82
597.992	5.8
598.324	5.77
598.657	5.74
598.99	5.71
599.322	5.69
599.655	5.66
599.987	5.65
600.32	5.63
600.652	5.62
600.984	5.61
601.317	5.6
601.649	5.59
601.981	5.58
602.313	5.58
602.645	5.56
602.977	5.55
603.309	5.54
603.641	5.53
603.973	5.51
604.305	5.5
604.637	5.47
604.969	5.45
605.3	5.43
605.632	5.41
605.964	5.39
606.295	5.37
606.627	5.35
606.958	5.34
607.29	5.32
607.621	5.31
607.952	5.3
608.284	5.29
608.615	5.28
608.946	5.28
609.277	5.27
609.609	5.27
609.94	5.26
610.271	5.26
610.602	5.27
610.933	5.27
611.263	5.29
611.594	5.31
611.925	5.35
612.256	5.44
612.587	5.57
612.917	5.75
613.248	5.95
613.578	6.14
613.909	6.3
614.239	6.44
614.57	6.55
614.9	6.64
615.23	6.71
615.561	6.74
615.891	6.73
616.221	6.65
616.551	6.51
616.881	6.35
617.211	6.19
617.541	6.05
617.871	5.92
618.201	5.8
618.531	5.7
618.861	5.6
619.191	5.52
619.52	5.44
619.85	5.36
620.18	5.3
620.509	5.24
620.839	5.19
621.168	5.14
621.498	5.11
621.827	5.08
622.157	5.06
622.486	5.04
622.815	5.03
623.144	5.01
623.473	5
623.803	4.99
624.132	4.99
624.461	4.98
624.79	4.97
625.119	4.96
625.447	4.95
625.776	4.93
626.105	4.92
626.434	4.91
626.762	4.9
627.091	4.89
627.42	4.87
627.748	4.86
628.077	4.85
628.405	4.84
628.734	4.82
629.062	4.82
629.39	4.81
629.719	4.8
630.047	4.79
630.375	4.78
630.703	4.77
631.031	4.76
631.359	4.75
631.687	4.75
632.015	4.76
632.343	4.77
632.671	4.78
632.999	4.79
633.326	4.8
633.654	4.82
633.982	4.83
634.309	4.83
634.637	4.84
634.964	4.84
635.292	4.84
635.619	4.84
635.947	4.83
636.274	4.81
636.601	4.8
636.928	4.79
637.256	4.79
637.583	4.79
637.91	4.79
638.237	4.8
638.564	4.81
638.891	4.83
639.218	4.85
639.544	4.87
639.871	4.89
640.198	4.92
640.525	4.95
640.851	4.97
641.178	5
641.504	5.03
641.831	5.07
642.157	5.11
642.484	5.15
642.81	5.18
643.137	5.22
643.463	5.26
643.789	5.3
644.115	5.35
644.441	5.4
644.767	5.44
645.093	5.5
645.419	5.54
645.745	5.6
646.071	5.66
646.397	5.72
646.723	5.78
647.049	5.85
647.374	5.93
647.7	6
648.026	6.08
648.351	6.16
648.677	6.24
649.002	6.33
649.328	6.41
649.653	6.5
649.978	6.59
650.303	6.68
650.629	6.78
650.954	6.88
651.279	6.98
651.604	7.08
651.929	7.2
652.254	7.31
652.579	7.43
652.904	7.54
653.229	7.66
653.554	7.79
653.878	7.91
654.203	8.03
654.528	8.15
654.852	8.28
655.177	8.4
655.501	8.52
655.826	8.65
656.15	8.77
656.474	8.89
656.799	9.01
657.123	9.13
657.447	9.24
657.771	9.35
658.096	9.46
658.42	9.55
658.744	9.65
659.068	9.73
659.392	9.81
659.715	9.88
660.039	9.93
660.363	9.98
660.687	10.01
661.01	10.03
661.334	10.03
661.658	10.01
661.981	9.97
662.305	9.91
662.628	9.83
662.952	9.73
663.275	9.61
663.598	9.47
663.921	9.31
664.245	9.14
664.568	8.95
664.891	8.75
665.214	8.54
665.537	8.31
665.86	8.08
666.183	7.84
666.506	7.59
666.828	7.34
667.151	7.08
667.474	6.83
667.797	6.57
668.119	6.33
668.442	6.09
668.764	5.85
669.087	5.63
669.409	5.41
669.732	5.2
670.054	5.01
670.376	4.82
670.698	4.64
671.021	4.47
671.343	4.32
671.665	4.16
671.987	4.02
672.309	3.89
672.631	3.76
672.953	3.64
673.275	3.53
673.596	3.42
673.918	3.32
674.24	3.22
674.561	3.12
674.883	3.03
675.205	2.95
675.526	2.87
675.848	2.79
676.169	2.72
676.49	2.65
676.812	2.59
677.133	2.52
677.454	2.46
677.775	2.4
678.096	2.35
678.417	2.3
678.739	2.25
679.059	2.2
679.38	2.16
679.701	2.11
680.022	2.07
680.343	2.03
680.664	2
680.984	1.96
681.305	1.93
681.625	1.9
681.946	1.87
682.266	1.84
682.587	1.81
682.907	1.79
683.228	1.76
683.548	1.73
683.868	1.71
684.188	1.69
684.508	1.66
684.829	1.64
685.149	1.62
685.469	1.6
685.789	1.58
686.108	1.55
686.428	1.53
686.748	1.51
687.068	1.49
687.387	1.47
687.707	1.45
688.027	1.43
688.346	1.42
688.666	1.41
688.985	1.39
689.305	1.39
689.624	1.37
689.943	1.36
690.263	1.35
690.582	1.34
690.901	1.33
691.22	1.32
691.539	1.31
691.858	1.29
692.177	1.28
692.496	1.26
692.815	1.25
693.134	1.23
693.452	1.21
693.771	1.2
694.09	1.18
694.408	1.16
694.727	1.15
695.045	1.14
695.364	1.13
695.682	1.12
696.001	1.11
696.319	1.1
696.637	1.09
696.956	1.08
697.274	1.07
697.592	1.07
697.91	1.06
698.228	1.05
698.546	1.04
698.864	1.03
699.182	1.01
699.499	1.01
699.817	0.99
700.135	0.98
700.453	0.97
700.77	0.96
701.088	0.95
701.405	0.94
701.723	0.93
702.04	0.92
702.358	0.91
702.675	0.91
702.992	0.9
703.31	0.89
703.627	0.88
703.944	0.87
704.261	0.87
704.578	0.86
704.895	0.85
705.212	0.84
705.529	0.83
705.846	0.83
706.162	0.83
706.479	0.82
706.796	0.82
707.112	0.82
707.429	0.82
707.746	0.82
708.062	0.83
708.378	0.83
708.695	0.84
709.011	0.84
709.327	0.85
709.644	0.85
709.96	0.85
710.276	0.85
710.592	0.86
710.908	0.86
711.224	0.86
711.54	0.85
711.856	0.84
712.172	0.83
712.488	0.82
712.803	0.8
713.119	0.79
713.435	0.78
713.75	0.77
714.066	0.76
714.381	0.75
714.697	0.74
715.012	0.73
715.327	0.73
715.643	0.72
715.958	0.71
716.273	0.71
716.588	0.7
716.903	0.69
717.218	0.67
717.533	0.65
717.848	0.63
718.163	0.62
718.478	0.6
718.793	0.59
719.108	0.58
719.422	0.58
719.737	0.56
720.052	0.56
720.366	0.55
720.681	0.55
720.995	0.54
721.309	0.54
721.624	0.53
721.938	0.52
722.252	0.52
722.566	0.51
722.881	0.51
723.195	0.51
723.509	0.5
723.823	0.49
724.137	0.49
724.45	0.48
724.764	0.48
725.078	0.47
725.392	0.47
725.706	0.46
726.019	0.45
726.333	0.45
726.646	0.45
726.96	0.44
727.273	0.44
727.587	0.43
727.9	0.42
728.213	0.41
728.526	0.41
728.84	0.41
729.153	0.4
729.466	0.39
729.779	0.38
730.092	0.37
730.405	0.37
730.718	0.37
731.03	0.37
731.343	0.36
731.656	0.36
731.969	0.35
732.281	0.34
732.594	0.34
732.906	0.33
733.219	0.33
733.531	0.33
733.844	0.32
734.156	0.32
734.468	0.32
734.78	0.31
735.093	0.31
735.405	0.31
735.717	0.3
736.029	0.31
736.341	0.3
736.653	0.3
736.965	0.3
737.276	0.29
737.588	0.29
737.9	0.28
738.211	0.28
738.523	0.28
738.835	0.28
739.146	0.28
739.458	0.28
739.769	0.27
740.08	0.27
740.392	0.27
740.703	0.27
741.014	0.27
741.325	0.27
741.636	0.26
741.947	0.26
742.258	0.25
742.569	0.25
742.88	0.25
743.191	0.25
743.502	0.25
743.813	0.24
744.123	0.24
744.434	0.24
744.745	0.24
745.055	0.24
745.366	0.24
745.676	0.23
745.987	0.23
746.297	0.23
746.607	0.23
746.917	0.23
747.228	0.23
747.538	0.24
747.848	0.23
748.158	0.23
748.468	0.23
748.778	0.23
749.088	0.23
749.397	0.23
749.707	0.22
750.017	0.22
750.327	0.22
750.636	0.22
750.946	0.21
751.255	0.21
751.565	0.21
751.874	0.21
752.184	0.21
752.493	0.2
752.802	0.2
753.111	0.2
753.421	0.2
753.73	0.2
754.039	0.19
754.348	0.19
754.657	0.19
754.966	0.19
755.274	0.18
755.583	0.19
755.892	0.19
756.201	0.19
756.509	0.19
756.818	0.19
757.127	0.19
757.435	0.19
757.743	0.19
758.052	0.19
758.36	0.19
758.668	0.19
758.977	0.19
759.285	0.2
759.593	0.19
759.901	0.19
760.209	0.19
760.517	0.2
760.825	0.2
761.133	0.2
761.441	0.2
761.749	0.21
762.056	0.21
762.364	0.21
762.672	0.21
762.979	0.21
763.287	0.21
763.594	0.21
763.902	0.21
764.209	0.2
764.516	0.21
764.823	0.21
765.131	0.21
765.438	0.2
765.745	0.19
766.052	0.2
766.359	0.19
766.666	0.19
766.973	0.18
767.28	0.18
767.587	0.18
767.893	0.18
768.2	0.17
768.507	0.17
768.813	0.17
769.12	0.16
769.426	0.16
769.733	0.16
770.039	0.16
770.345	0.16
770.652	0.16
770.958	0.16
771.264	0.17
771.57	0.17
771.876	0.17
772.182	0.17
772.488	0.18
772.794	0.18
773.1	0.16
773.406	0.16
773.712	0.16
774.017	0.16
774.323	0.17
774.628	0.17
774.934	0.16
775.24	0.16
775.545	0.15
775.85	0.15
776.156	0.15
776.461	0.17
776.766	0.16
777.071	0.17
777.377	0.16
777.682	0.16
777.987	0.16
778.292	0.16
778.597	0.16
778.901	0.17
779.206	0.18
779.511	0.18
779.816	0.17
780.12	0.17
780.425	0.18
780.73	0.18
781.034	0.17
781.339	0.17
781.643	0.17
781.947	0.17
782.252	0.16
782.556	0.14
782.86	0.14
783.164	0.14
783.468	0.14
783.772	0.15
784.076	0.14
784.38	0.16
784.684	0.17
784.988	0.16
785.292	0.17
785.595	0.18
785.899	0.19
786.203	0.2
786.506	0.17
786.81	0.17
787.113	0.16
787.417	0.16
787.72	0.16
788.023	0.14
788.327	0.14
788.63	0.13
788.933	0.13
789.236	0.14
789.539	0.15
789.842	0.17
790.145	0.17
790.448	0.17
790.751	0.18
791.054	0.18
791.356	0.19
791.659	0.18
791.962	0.18
792.264	0.18
792.567	0.16
792.869	0.14
793.172	0.14
793.474	0.14
793.776	0.14
794.078	0.14
794.381	0.14
794.683	0.14
794.985	0.14
795.287	0.15
795.589	0.14
795.891	0.14
796.193	0.15
796.495	0.15
796.796	0.14
797.098	0.14
797.4	0.14
797.701	0.14
798.003	0.14
798.304	0.15
798.606	0.14
798.907	0.14
799.209	0.14
799.51	0.14
799.811	0.14
800.112	0.14
800.414	0.12
800.715	0.11
801.016	0.11
801.317	0.11
801.618	0.12
801.919	0.12
802.219	0.12
802.52	0.12
802.821	0.12
803.122	0.11
803.422	0.12
803.723	0.14
804.023	0.14
804.324	0.13
804.624	0.12
804.924	0.12
805.225	0.12
805.525	0.11
805.825	0.12
806.125	0.12
806.425	0.13
806.725	0.13
807.025	0.12
807.325	0.11
807.625	0.12
807.925	0.13
808.225	0.12
808.525	0.13
808.824	0.13
809.124	0.12
809.423	0.13
809.723	0.12
810.022	0.13
810.322	0.14
810.621	0.14
810.92	0.14
811.22	0.11
811.519	0.11
811.818	0.1
812.117	0.1
812.416	0.09
812.715	0.1
813.014	0.09
813.313	0.09
813.612	0.09
813.91	0.11
814.209	0.1
814.508	0.14
814.806	0.15
815.105	0.16
815.403	0.17
815.702	0.19
816	0.21
816.298	0.22
816.597	0.23
816.895	0.21
817.193	0.19
817.491	0.21
817.789	0.19
818.087	0.22
818.385	0.23
818.683	0.2
818.981	0.21
819.279	0.18
819.577	0.19
819.874	0.2
820.172	0.19
820.469	0.2
820.767	0.19
821.064	0.2
821.362	0.17
821.659	0.17
821.957	0.18
822.254	0.17
822.551	0.18
822.848	0.18
823.145	0.17
823.442	0.2
823.739	0.21
824.036	0.23
824.333	0.22
824.63	0.22
824.927	0.21
825.223	0.21
825.52	0.23
825.817	0.21
826.113	0.21
826.41	0.2
826.706	0.19
827.003	0.2
827.299	0.2
827.595	0.21
827.892	0.21
828.188	0.22
828.484	0.19
828.78	0.15
829.076	0.13
829.372	0.1
829.668	0.11
829.964	0.11
830.26	0.07
830.555	0.07
830.851	0.09
831.147	0.08
831.442	0.06
831.738	0.1
832.033	0.11
832.329	0.13
832.624	0.18
832.919	0.17
833.215	0.16
833.51	0.22
833.805	0.24
834.1	0.21
834.395	0.24
834.69	0.28
834.985	0.26
835.28	0.27
835.575	0.28
835.87	0.27
836.164	0.28
836.459	0.27
836.754	0.22
837.048	0.16
837.343	0.15
837.637	0.14
837.932	0.11
838.226	0.1
838.52	0.09
838.814	0.08
839.109	0.1
839.403	0.09
839.697	0.07
839.991	0.1
840.285	0.15
840.579	0.14
840.873	0.14
841.166	0.12
841.46	0.14
841.754	0.12
842.047	0.12
842.341	0.08
842.635	0.09
842.928	0.15
843.222	0.15
843.515	0.13
843.808	0.2
844.101	0.21
844.395	0.21
844.688	0.21
844.981	0.22
845.274	0.25
845.567	0.27
845.86	0.27
846.153	0.24
846.446	0.22
846.738	0.19
847.031	0.13
847.324	0.14
847.616	0.19
847.909	0.18
848.201	0.25
848.494	0.26
848.786	0.23
849.079	0.27
849.371	0.35
849.663	0.41
849.955	0.44
850.247	0.42
850.539	0.41
850.831	0.42
851.123	0.42
851.415	0.33
851.707	0.29
851.999	0.33
852.291	0.35
852.582	0.28
852.874	0.23
853.166	0.25
853.457	0.36
853.749	0.27
854.04	0.23
854.331	0.27
854.623	0.35
854.914	0.39
855.205	0.36
855.496	0.24
855.787	0.3
856.078	0.28
856.369	0.32
856.66	0.25
856.951	0.34
857.242	0.43
857.533	0.4
857.823	0.33
858.114	0.37
858.404	0.39
858.695	0.4
858.985	0.41
859.276	0.39
859.566	0.3
859.857	0.34
860.147	0.3
860.437	0.23
860.727	0.32
861.017	0.32
861.307	0.2
861.597	0.2
861.887	0.13
862.177	0.18
862.467	0.38
862.757	0.48
863.046	0.47
863.336	0.46
863.626	0.48
863.915	0.46
864.205	0.55
864.494	0.6
864.783	0.58
865.073	0.86
865.362	0.8
865.651	0.53
865.94	0.51
866.229	0.47
866.518	0.51
866.807	0.59
867.096	0.58
867.385	0.52
867.674	0.6
867.963	0.81
868.252	0.86
868.54	0.81
868.829	0.94
869.117	0.92
869.406	1.05
869.694	1.2
869.983	1.15
870.271	1.11
870.559	1.27
