Data from AbsoluteIrradiance__7__17-14-20-378.txt Node

Date: Fri Jul 22 17:14:20 EDT 2022
User: enochs
Spectrometer: FLMS17410
Trigger mode: 0
Integration Time (sec): 1.545400E-1
Scans to average: 5
Electric dark correction enabled: true
Nonlinearity correction enabled: true
Boxcar width: 5
XAxis mode: Wavelengths
Number of Pixels in Spectrum: 2048
>>>>>Begin Spectral Data<<<<<
179.501	-0
179.881	-0
180.261	-0
180.64	-0
181.02	-0
181.399	-0
181.779	-0
182.158	-0
182.537	-0
182.917	-0
183.296	-0
183.675	-0
184.055	0
184.434	0
184.813	0
185.192	0
185.571	-0
185.95	-0
186.329	0
186.708	0
187.087	0
187.466	0
187.845	0
188.224	0
188.603	0
188.982	0
189.361	0
189.739	0
190.118	0
190.497	0
190.875	0
191.254	0
191.632	0
192.011	0
192.39	0
192.768	0
193.146	0
193.525	0
193.903	0
194.282	0
194.66	0
195.038	0
195.416	0
195.794	0
196.173	0
196.551	0
196.929	0
197.307	0
197.685	0
198.063	0
198.441	0
198.819	0
199.197	0
199.575	0
199.952	0
200.33	2.91
200.708	2.96
201.086	3.4
201.463	3.8
201.841	4.23
202.218	4.04
202.596	3.8
202.974	3.79
203.351	3.7
203.729	3.2
204.106	3.27
204.483	2.83
204.861	2.46
205.238	2.13
205.615	1.81
205.993	1.42
206.37	1.51
206.747	1.44
207.124	1.2
207.501	1.22
207.878	1.17
208.255	1.15
208.632	1.2
209.009	1.19
209.386	1.34
209.763	1.2
210.14	1.11
210.517	1.05
210.894	1.08
211.271	1.12
211.647	1.07
212.024	1.09
212.401	0.97
212.777	0.91
213.154	0.96
213.531	0.95
213.907	1.02
214.284	1.03
214.66	0.87
215.036	0.79
215.413	0.78
215.789	0.75
216.166	0.82
216.542	0.78
216.918	0.73
217.294	0.72
217.67	0.62
218.047	0.5
218.423	0.42
218.799	0.46
219.175	0.42
219.551	0.41
219.927	0.37
220.303	0.25
220.679	0.27
221.054	0.33
221.43	0.34
221.806	0.38
222.182	0.41
222.558	0.45
222.933	0.46
223.309	0.47
223.685	0.44
224.06	0.48
224.436	0.46
224.811	0.45
225.187	0.42
225.562	0.38
225.938	0.37
226.313	0.37
226.688	0.35
227.064	0.36
227.439	0.39
227.814	0.38
228.189	0.35
228.564	0.36
228.94	0.34
229.315	0.31
229.69	0.31
230.065	0.29
230.44	0.29
230.815	0.28
231.19	0.27
231.564	0.24
231.939	0.26
232.314	0.26
232.689	0.25
233.064	0.27
233.438	0.28
233.813	0.3
234.188	0.29
234.562	0.26
234.937	0.25
235.311	0.23
235.686	0.22
236.06	0.19
236.435	0.19
236.809	0.2
237.183	0.17
237.558	0.17
237.932	0.16
238.306	0.17
238.68	0.17
239.055	0.16
239.429	0.16
239.803	0.16
240.177	0.17
240.551	0.16
240.925	0.16
241.299	0.18
241.673	0.18
242.047	0.16
242.42	0.15
242.794	0.16
243.168	0.17
243.542	0.18
243.915	0.19
244.289	0.18
244.663	0.18
245.036	0.18
245.41	0.16
245.783	0.15
246.157	0.15
246.53	0.15
246.904	0.13
247.277	0.13
247.651	0.13
248.024	0.12
248.397	0.11
248.77	0.1
249.144	0.09
249.517	0.09
249.89	0.09
250.263	0.1
250.636	0.09
251.009	0.09
251.382	0.08
251.755	0.08
252.128	0.07
252.501	0.08
252.874	0.07
253.246	0.07
253.619	0.07
253.992	0.07
254.365	0.06
254.737	0.06
255.11	0.07
255.483	0.07
255.855	0.06
256.228	0.06
256.6	0.05
256.973	0.06
257.345	0.06
257.717	0.05
258.09	0.05
258.462	0.05
258.834	0.05
259.206	0.05
259.579	0.06
259.951	0.06
260.323	0.07
260.695	0.07
261.067	0.07
261.439	0.07
261.811	0.07
262.183	0.07
262.555	0.08
262.927	0.08
263.299	0.08
263.67	0.06
264.042	0.06
264.414	0.05
264.786	0.05
265.157	0.05
265.529	0.05
265.9	0.05
266.272	0.05
266.643	0.05
267.015	0.05
267.386	0.05
267.758	0.05
268.129	0.04
268.5	0.05
268.872	0.05
269.243	0.04
269.614	0.04
269.985	0.05
270.357	0.05
270.728	0.05
271.099	0.05
271.47	0.05
271.841	0.05
272.212	0.06
272.583	0.06
272.953	0.06
273.324	0.06
273.695	0.06
274.066	0.06
274.437	0.06
274.807	0.06
275.178	0.06
275.549	0.06
275.919	0.05
276.29	0.05
276.66	0.06
277.031	0.06
277.401	0.06
277.772	0.06
278.142	0.06
278.512	0.06
278.883	0.06
279.253	0.06
279.623	0.06
279.993	0.07
280.364	0.06
280.734	0.06
281.104	0.06
281.474	0.05
281.844	0.05
282.214	0.05
282.584	0.06
282.954	0.05
283.323	0.05
283.693	0.05
284.063	0.05
284.433	0.05
284.802	0.06
285.172	0.06
285.542	0.06
285.911	0.06
286.281	0.06
286.65	0.06
287.02	0.05
287.389	0.06
287.759	0.05
288.128	0.05
288.498	0.05
288.867	0.05
289.236	0.04
289.605	0.04
289.975	0.04
290.344	0.04
290.713	0.04
291.082	0.05
291.451	0.05
291.82	0.05
292.189	0.04
292.558	0.04
292.927	0.04
293.296	0.05
293.664	0.04
294.033	0.04
294.402	0.04
294.771	0.04
295.139	0.04
295.508	0.04
295.877	0.04
296.245	0.05
296.614	0.05
296.982	0.05
297.351	0.04
297.719	0.05
298.087	0.05
298.456	0.05
298.824	0.05
299.192	0.04
299.561	0.04
299.929	0.04
300.297	0.03
300.665	0.04
301.033	0.04
301.401	0.04
301.769	0.03
302.137	0.03
302.505	0.03
302.873	0.03
303.241	0.03
303.609	0.03
303.976	0.03
304.344	0.03
304.712	0.03
305.079	0.03
305.447	0.03
305.815	0.03
306.182	0.03
306.55	0.03
306.917	0.03
307.285	0.04
307.652	0.04
308.019	0.04
308.387	0.03
308.754	0.03
309.121	0.03
309.489	0.03
309.856	0.02
310.223	0.03
310.59	0.03
310.957	0.03
311.324	0.02
311.691	0.03
312.058	0.03
312.425	0.03
312.792	0.03
313.159	0.03
313.525	0.03
313.892	0.04
314.259	0.03
314.626	0.03
314.992	0.03
315.359	0.03
315.725	0.03
316.092	0.03
316.459	0.03
316.825	0.03
317.191	0.03
317.558	0.03
317.924	0.03
318.29	0.03
318.657	0.02
319.023	0.03
319.389	0.03
319.755	0.03
320.121	0.03
320.488	0.03
320.854	0.03
321.22	0.03
321.586	0.03
321.952	0.03
322.317	0.03
322.683	0.03
323.049	0.02
323.415	0.02
323.781	0.02
324.146	0.02
324.512	0.02
324.878	0.02
325.243	0.02
325.609	0.02
325.974	0.02
326.34	0.03
326.705	0.03
327.071	0.03
327.436	0.03
327.801	0.03
328.167	0.03
328.532	0.03
328.897	0.03
329.262	0.03
329.627	0.03
329.992	0.03
330.357	0.03
330.722	0.03
331.087	0.03
331.452	0.03
331.817	0.02
332.182	0.02
332.547	0.02
332.912	0.02
333.277	0.02
333.641	0.02
334.006	0.02
334.371	0.02
334.735	0.02
335.1	0.02
335.464	0.02
335.829	0.02
336.193	0.02
336.558	0.02
336.922	0.02
337.286	0.02
337.651	0.03
338.015	0.03
338.379	0.03
338.743	0.03
339.107	0.03
339.471	0.03
339.836	0.03
340.2	0.03
340.564	0.03
340.927	0.03
341.291	0.03
341.655	0.02
342.019	0.03
342.383	0.02
342.747	0.02
343.11	0.02
343.474	0.03
343.838	0.03
344.201	0.02
344.565	0.03
344.928	0.02
345.292	0.02
345.655	0.03
346.019	0.03
346.382	0.02
346.745	0.02
347.109	0.02
347.472	0.02
347.835	0.02
348.198	0.02
348.561	0.02
348.925	0.02
349.288	0.02
349.651	0.02
350.014	0.02
350.377	0.02
350.739	0.02
351.102	0.02
351.465	0.02
351.828	0.02
352.191	0.02
352.553	0.02
352.916	0.02
353.279	0.02
353.641	0.02
354.004	0.02
354.366	0.02
354.729	0.02
355.091	0.02
355.454	0.02
355.816	0.02
356.178	0.02
356.541	0.02
356.903	0.02
357.265	0.02
357.627	0.02
357.989	0.02
358.351	0.02
358.714	0.02
359.076	0.02
359.437	0.02
359.799	0.02
360.161	0.02
360.523	0.02
360.885	0.02
361.247	0.02
361.608	0.02
361.97	0.02
362.332	0.02
362.693	0.02
363.055	0.02
363.417	0.02
363.778	0.02
364.14	0.02
364.501	0.02
364.862	0.02
365.224	0.02
365.585	0.02
365.946	0.01
366.307	0.01
366.669	0.01
367.03	0.01
367.391	0.01
367.752	0.01
368.113	0.01
368.474	0.02
368.835	0.02
369.196	0.02
369.557	0.02
369.918	0.02
370.278	0.02
370.639	0.02
371	0.02
371.361	0.02
371.721	0.02
372.082	0.02
372.442	0.02
372.803	0.02
373.163	0.02
373.524	0.02
373.884	0.02
374.245	0.02
374.605	0.02
374.965	0.02
375.325	0.02
375.686	0.02
376.046	0.02
376.406	0.02
376.766	0.02
377.126	0.02
377.486	0.02
377.846	0.02
378.206	0.02
378.566	0.02
378.926	0.02
379.285	0.02
379.645	0.02
380.005	0.02
380.365	0.02
380.724	0.02
381.084	0.02
381.443	0.02
381.803	0.02
382.163	0.02
382.522	0.02
382.881	0.02
383.241	0.02
383.6	0.02
383.959	0.02
384.319	0.02
384.678	0.02
385.037	0.02
385.396	0.02
385.755	0.02
386.114	0.02
386.473	0.02
386.832	0.01
387.191	0.01
387.55	0.02
387.909	0.02
388.268	0.02
388.627	0.02
388.985	0.02
389.344	0.02
389.703	0.02
390.061	0.02
390.42	0.02
390.778	0.02
391.137	0.02
391.495	0.02
391.854	0.02
392.212	0.02
392.57	0.02
392.929	0.02
393.287	0.02
393.645	0.02
394.003	0.02
394.362	0.02
394.72	0.01
395.078	0.01
395.436	0.02
395.794	0.01
396.152	0.01
396.51	0.01
396.867	0.01
397.225	0.01
397.583	0.01
397.941	0.01
398.298	0.02
398.656	0.02
399.014	0.02
399.371	0.02
399.729	0.02
400.086	0.02
400.444	0.02
400.801	0.02
401.159	0.02
401.516	0.02
401.873	0.02
402.23	0.02
402.588	0.02
402.945	0.02
403.302	0.02
403.659	0.02
404.016	0.02
404.373	0.03
404.73	0.03
405.087	0.03
405.444	0.03
405.801	0.04
406.158	0.07
406.514	0.1
406.871	0.14
407.228	0.17
407.584	0.18
407.941	0.19
408.298	0.2
408.654	0.2
409.011	0.2
409.367	0.2
409.723	0.2
410.08	0.18
410.436	0.15
410.792	0.11
411.149	0.09
411.505	0.08
411.861	0.07
412.217	0.07
412.573	0.07
412.929	0.07
413.285	0.07
413.641	0.07
413.997	0.07
414.353	0.07
414.709	0.07
415.065	0.07
415.42	0.07
415.776	0.08
416.132	0.08
416.487	0.08
416.843	0.08
417.199	0.09
417.554	0.09
417.91	0.1
418.265	0.1
418.62	0.11
418.976	0.11
419.331	0.12
419.686	0.12
420.042	0.13
420.397	0.14
420.752	0.14
421.107	0.15
421.462	0.16
421.817	0.16
422.172	0.17
422.527	0.18
422.882	0.18
423.237	0.19
423.592	0.2
423.946	0.21
424.301	0.21
424.656	0.22
425.01	0.23
425.365	0.24
425.72	0.25
426.074	0.26
426.429	0.27
426.783	0.28
427.137	0.29
427.492	0.3
427.846	0.32
428.2	0.33
428.555	0.34
428.909	0.35
429.263	0.36
429.617	0.38
429.971	0.39
430.325	0.4
430.679	0.42
431.033	0.44
431.387	0.45
431.741	0.47
432.095	0.49
432.449	0.5
432.802	0.52
433.156	0.54
433.51	0.56
433.863	0.58
434.217	0.6
434.571	0.62
434.924	0.64
435.278	0.66
435.631	0.68
435.984	0.71
436.338	0.73
436.691	0.77
437.044	0.85
437.397	0.97
437.751	1.12
438.104	1.26
438.457	1.36
438.81	1.44
439.163	1.49
439.516	1.55
439.869	1.58
440.222	1.62
440.575	1.64
440.927	1.63
441.28	1.56
441.633	1.48
441.986	1.41
442.338	1.38
442.691	1.38
443.043	1.4
443.396	1.43
443.748	1.47
444.101	1.51
444.453	1.56
444.805	1.61
445.158	1.67
445.51	1.72
445.862	1.78
446.214	1.84
446.567	1.89
446.919	1.95
447.271	2
447.623	2.05
447.975	2.1
448.327	2.16
448.679	2.2
449.03	2.24
449.382	2.28
449.734	2.31
450.086	2.34
450.437	2.37
450.789	2.39
451.141	2.4
451.492	2.41
451.844	2.42
452.195	2.41
452.547	2.4
452.898	2.39
453.249	2.37
453.601	2.34
453.952	2.3
454.303	2.27
454.654	2.23
455.005	2.18
455.357	2.13
455.708	2.09
456.059	2.03
456.41	1.98
456.76	1.93
457.111	1.88
457.462	1.83
457.813	1.77
458.164	1.72
458.515	1.67
458.865	1.62
459.216	1.58
459.566	1.53
459.917	1.49
460.267	1.45
460.618	1.42
460.968	1.39
461.319	1.35
461.669	1.32
462.019	1.3
462.37	1.27
462.72	1.25
463.07	1.23
463.42	1.21
463.77	1.19
464.12	1.17
464.47	1.15
464.82	1.14
465.17	1.12
465.52	1.11
465.87	1.09
466.22	1.07
466.569	1.06
466.919	1.04
467.269	1.02
467.618	1
467.968	0.98
468.318	0.97
468.667	0.95
469.017	0.93
469.366	0.91
469.715	0.89
470.065	0.87
470.414	0.85
470.763	0.83
471.112	0.81
471.462	0.8
471.811	0.78
472.16	0.76
472.509	0.74
472.858	0.72
473.207	0.71
473.556	0.69
473.905	0.68
474.253	0.67
474.602	0.66
474.951	0.65
475.3	0.64
475.648	0.63
475.997	0.62
476.345	0.62
476.694	0.61
477.042	0.6
477.391	0.6
477.739	0.59
478.088	0.59
478.436	0.59
478.784	0.58
479.132	0.58
479.481	0.58
479.829	0.58
480.177	0.57
480.525	0.57
480.873	0.57
481.221	0.57
481.569	0.57
481.917	0.58
482.265	0.58
482.612	0.58
482.96	0.58
483.308	0.58
483.656	0.59
484.003	0.59
484.351	0.6
484.698	0.6
485.046	0.61
485.393	0.62
485.741	0.63
486.088	0.65
486.435	0.66
486.783	0.68
487.13	0.69
487.477	0.72
487.824	0.74
488.171	0.76
488.518	0.78
488.866	0.81
489.212	0.83
489.559	0.85
489.906	0.87
490.253	0.89
490.6	0.9
490.947	0.91
491.294	0.92
491.64	0.93
491.987	0.93
492.333	0.93
492.68	0.93
493.027	0.93
493.373	0.92
493.719	0.92
494.066	0.92
494.412	0.92
494.759	0.92
495.105	0.92
495.451	0.92
495.797	0.92
496.143	0.92
496.489	0.93
496.835	0.93
497.181	0.93
497.527	0.94
497.873	0.94
498.219	0.94
498.565	0.95
498.911	0.95
499.257	0.96
499.602	0.96
499.948	0.97
500.294	0.98
500.639	0.98
500.985	0.99
501.33	0.99
501.676	1
502.021	1.01
502.366	1.01
502.712	1.02
503.057	1.03
503.402	1.03
503.747	1.04
504.092	1.05
504.438	1.06
504.783	1.06
505.128	1.07
505.473	1.08
505.817	1.09
506.162	1.1
506.507	1.11
506.852	1.12
507.197	1.13
507.541	1.14
507.886	1.15
508.231	1.16
508.575	1.17
508.92	1.18
509.264	1.19
509.609	1.2
509.953	1.21
510.297	1.22
510.642	1.23
510.986	1.24
511.33	1.26
511.674	1.27
512.019	1.28
512.363	1.29
512.707	1.3
513.051	1.32
513.395	1.33
513.739	1.34
514.083	1.35
514.426	1.36
514.77	1.37
515.114	1.38
515.458	1.39
515.801	1.4
516.145	1.42
516.488	1.43
516.832	1.44
517.175	1.45
517.519	1.46
517.862	1.47
518.206	1.48
518.549	1.49
518.892	1.5
519.235	1.51
519.579	1.52
519.922	1.53
520.265	1.54
520.608	1.56
520.951	1.57
521.294	1.58
521.637	1.59
521.98	1.6
522.323	1.61
522.665	1.62
523.008	1.63
523.351	1.63
523.693	1.64
524.036	1.65
524.379	1.66
524.721	1.67
525.064	1.68
525.406	1.69
525.748	1.7
526.091	1.71
526.433	1.72
526.775	1.73
527.118	1.74
527.46	1.75
527.802	1.76
528.144	1.77
528.486	1.77
528.828	1.78
529.17	1.79
529.512	1.79
529.854	1.8
530.195	1.81
530.537	1.82
530.879	1.83
531.221	1.83
531.562	1.84
531.904	1.85
532.245	1.86
532.587	1.86
532.928	1.87
533.27	1.88
533.611	1.88
533.953	1.89
534.294	1.9
534.635	1.9
534.976	1.91
535.317	1.92
535.659	1.93
536	1.94
536.341	1.94
536.682	1.95
537.023	1.96
537.363	1.97
537.704	1.98
538.045	1.99
538.386	2
538.727	2.01
539.067	2.02
539.408	2.04
539.748	2.06
540.089	2.07
540.429	2.1
540.77	2.12
541.11	2.15
541.451	2.19
541.791	2.23
542.131	2.29
542.471	2.35
542.812	2.43
543.152	2.54
543.492	2.66
543.832	2.79
544.172	2.92
544.512	3.04
544.852	3.15
545.192	3.25
545.531	3.35
545.871	3.43
546.211	3.5
546.551	3.54
546.89	3.57
547.23	3.61
547.57	3.68
547.909	3.76
548.248	3.83
548.588	3.87
548.927	3.88
549.267	3.88
549.606	3.87
549.945	3.84
550.284	3.81
550.623	3.77
550.963	3.68
551.302	3.55
551.641	3.39
551.98	3.25
552.319	3.13
552.657	3.04
552.996	2.96
553.335	2.89
553.674	2.83
554.013	2.78
554.351	2.73
554.69	2.68
555.028	2.64
555.367	2.61
555.705	2.58
556.044	2.56
556.382	2.53
556.721	2.51
557.059	2.49
557.397	2.47
557.735	2.45
558.074	2.44
558.412	2.43
558.75	2.42
559.088	2.41
559.426	2.4
559.764	2.4
560.102	2.4
560.439	2.4
560.777	2.4
561.115	2.4
561.453	2.4
561.79	2.4
562.128	2.41
562.466	2.41
562.803	2.42
563.141	2.42
563.478	2.43
563.816	2.44
564.153	2.44
564.49	2.45
564.827	2.46
565.165	2.46
565.502	2.47
565.839	2.48
566.176	2.49
566.513	2.49
566.85	2.5
567.187	2.51
567.524	2.52
567.861	2.53
568.198	2.53
568.534	2.54
568.871	2.55
569.208	2.55
569.544	2.56
569.881	2.57
570.218	2.58
570.554	2.59
570.891	2.6
571.227	2.61
571.563	2.62
571.9	2.63
572.236	2.64
572.572	2.65
572.908	2.66
573.244	2.66
573.581	2.68
573.917	2.68
574.253	2.69
574.588	2.7
574.924	2.71
575.26	2.72
575.596	2.73
575.932	2.73
576.268	2.74
576.603	2.75
576.939	2.76
577.274	2.77
577.61	2.78
577.946	2.8
578.281	2.82
578.616	2.85
578.952	2.88
579.287	2.9
579.622	2.92
579.958	2.94
580.293	2.97
580.628	3
580.963	3.03
581.298	3.06
581.633	3.08
581.968	3.1
582.303	3.11
582.638	3.12
582.973	3.13
583.307	3.14
583.642	3.16
583.977	3.17
584.311	3.18
584.646	3.19
584.98	3.2
585.315	3.22
585.649	3.23
585.984	3.25
586.318	3.27
586.652	3.29
586.987	3.3
587.321	3.32
587.655	3.33
587.989	3.34
588.323	3.35
588.657	3.36
588.991	3.37
589.325	3.39
589.659	3.41
589.993	3.41
590.327	3.42
590.661	3.43
590.994	3.43
591.328	3.43
591.662	3.44
591.995	3.43
592.329	3.42
592.662	3.41
592.996	3.39
593.329	3.38
593.662	3.37
593.996	3.37
594.329	3.37
594.662	3.38
594.995	3.39
595.328	3.41
595.661	3.42
595.994	3.43
596.327	3.43
596.66	3.44
596.993	3.43
597.326	3.43
597.659	3.43
597.992	3.42
598.324	3.41
598.657	3.39
598.99	3.38
599.322	3.37
599.655	3.36
599.987	3.35
600.32	3.35
600.652	3.36
600.984	3.36
601.317	3.37
601.649	3.38
601.981	3.39
602.313	3.39
602.645	3.4
602.977	3.4
603.309	3.4
603.641	3.41
603.973	3.4
604.305	3.4
604.637	3.39
604.969	3.38
605.3	3.37
605.632	3.36
605.964	3.36
606.295	3.35
606.627	3.35
606.958	3.34
607.29	3.34
607.621	3.34
607.952	3.34
608.284	3.34
608.615	3.35
608.946	3.35
609.277	3.36
609.609	3.36
609.94	3.37
610.271	3.38
610.602	3.4
610.933	3.42
611.263	3.45
611.594	3.49
611.925	3.55
612.256	3.65
612.587	3.81
612.917	4.02
613.248	4.25
613.578	4.47
613.909	4.65
614.239	4.81
614.57	4.94
614.9	5.05
615.23	5.13
615.561	5.17
615.891	5.16
616.221	5.08
616.551	4.94
616.881	4.77
617.211	4.6
617.541	4.45
617.871	4.31
618.201	4.2
618.531	4.09
618.861	4
619.191	3.91
619.52	3.83
619.85	3.76
620.18	3.69
620.509	3.64
620.839	3.59
621.168	3.55
621.498	3.51
621.827	3.49
622.157	3.46
622.486	3.45
622.815	3.44
623.144	3.43
623.473	3.42
623.803	3.41
624.132	3.4
624.461	3.39
624.79	3.38
625.119	3.37
625.447	3.37
625.776	3.36
626.105	3.34
626.434	3.33
626.762	3.32
627.091	3.31
627.42	3.3
627.748	3.29
628.077	3.28
628.405	3.26
628.734	3.25
629.062	3.23
629.39	3.22
629.719	3.2
630.047	3.19
630.375	3.17
630.703	3.15
631.031	3.13
631.359	3.11
631.687	3.1
632.015	3.09
632.343	3.08
632.671	3.08
632.999	3.09
633.326	3.09
633.654	3.08
633.982	3.08
634.309	3.07
634.637	3.05
634.964	3.04
635.292	3.02
635.619	2.99
635.947	2.96
636.274	2.92
636.601	2.88
636.928	2.84
637.256	2.81
637.583	2.78
637.91	2.75
638.237	2.73
638.564	2.71
638.891	2.7
639.218	2.68
639.544	2.67
639.871	2.66
640.198	2.65
640.525	2.64
640.851	2.63
641.178	2.62
641.504	2.61
641.831	2.6
642.157	2.59
642.484	2.58
642.81	2.57
643.137	2.56
643.463	2.54
643.789	2.53
644.115	2.52
644.441	2.51
644.767	2.5
645.093	2.49
645.419	2.47
645.745	2.46
646.071	2.45
646.397	2.44
646.723	2.42
647.049	2.41
647.374	2.4
647.7	2.39
648.026	2.38
648.351	2.37
648.677	2.36
649.002	2.35
649.328	2.34
649.653	2.32
649.978	2.31
650.303	2.3
650.629	2.29
650.954	2.27
651.279	2.26
651.604	2.25
651.929	2.24
652.254	2.24
652.579	2.23
652.904	2.23
653.229	2.22
653.554	2.21
653.878	2.21
654.203	2.2
654.528	2.19
654.852	2.18
655.177	2.16
655.501	2.15
655.826	2.13
656.15	2.11
656.474	2.09
656.799	2.07
657.123	2.06
657.447	2.04
657.771	2.02
658.096	2
658.42	1.99
658.744	1.97
659.068	1.95
659.392	1.94
659.715	1.92
660.039	1.91
660.363	1.9
660.687	1.89
661.01	1.87
661.334	1.86
661.658	1.84
661.981	1.83
662.305	1.81
662.628	1.8
662.952	1.78
663.275	1.77
663.598	1.76
663.921	1.75
664.245	1.74
664.568	1.73
664.891	1.72
665.214	1.71
665.537	1.7
665.86	1.69
666.183	1.68
666.506	1.67
666.828	1.65
667.151	1.64
667.474	1.63
667.797	1.61
668.119	1.59
668.442	1.58
668.764	1.57
669.087	1.56
669.409	1.54
669.732	1.53
670.054	1.51
670.376	1.5
670.698	1.49
671.021	1.48
671.343	1.47
671.665	1.46
671.987	1.45
672.309	1.43
672.631	1.42
672.953	1.41
673.275	1.4
673.596	1.39
673.918	1.38
674.24	1.36
674.561	1.35
674.883	1.34
675.205	1.33
675.526	1.32
675.848	1.31
676.169	1.3
676.49	1.29
676.812	1.28
677.133	1.27
677.454	1.26
677.775	1.25
678.096	1.24
678.417	1.23
678.739	1.22
679.059	1.21
679.38	1.2
679.701	1.19
680.022	1.18
680.343	1.17
680.664	1.17
680.984	1.16
681.305	1.15
681.625	1.14
681.946	1.13
682.266	1.12
682.587	1.12
682.907	1.11
683.228	1.1
683.548	1.09
683.868	1.08
684.188	1.07
684.508	1.07
684.829	1.05
685.149	1.04
685.469	1.04
685.789	1.03
686.108	1.02
686.428	1.01
686.748	1
687.068	0.99
687.387	0.99
687.707	0.98
688.027	0.97
688.346	0.97
688.666	0.96
688.985	0.96
689.305	0.95
689.624	0.94
689.943	0.94
690.263	0.94
690.582	0.93
690.901	0.92
691.22	0.92
691.539	0.91
691.858	0.9
692.177	0.89
692.496	0.88
692.815	0.87
693.134	0.86
693.452	0.85
693.771	0.83
694.09	0.82
694.408	0.81
694.727	0.8
695.045	0.79
695.364	0.79
695.682	0.78
696.001	0.78
696.319	0.77
696.637	0.76
696.956	0.76
697.274	0.75
697.592	0.75
697.91	0.74
698.228	0.73
698.546	0.72
698.864	0.71
699.182	0.7
699.499	0.69
699.817	0.68
700.135	0.67
700.453	0.66
700.77	0.65
701.088	0.64
701.405	0.63
701.723	0.63
702.04	0.62
702.358	0.62
702.675	0.61
702.992	0.61
703.31	0.6
703.627	0.6
703.944	0.59
704.261	0.59
704.578	0.59
704.895	0.58
705.212	0.57
705.529	0.57
705.846	0.57
706.162	0.56
706.479	0.55
706.796	0.55
707.112	0.55
707.429	0.55
707.746	0.55
708.062	0.56
708.378	0.57
708.695	0.58
709.011	0.59
709.327	0.6
709.644	0.6
709.96	0.61
710.276	0.61
710.592	0.62
710.908	0.63
711.224	0.63
711.54	0.63
711.856	0.62
712.172	0.6
712.488	0.59
712.803	0.58
713.119	0.57
713.435	0.56
713.75	0.55
714.066	0.55
714.381	0.54
714.697	0.53
715.012	0.52
715.327	0.51
715.643	0.51
715.958	0.5
716.273	0.5
716.588	0.49
716.903	0.47
717.218	0.46
717.533	0.44
717.848	0.42
718.163	0.41
718.478	0.4
718.793	0.39
719.108	0.38
719.422	0.37
719.737	0.36
720.052	0.36
720.366	0.36
720.681	0.35
720.995	0.35
721.309	0.35
721.624	0.34
721.938	0.33
722.252	0.33
722.566	0.33
722.881	0.32
723.195	0.32
723.509	0.32
723.823	0.31
724.137	0.31
724.45	0.3
724.764	0.3
725.078	0.3
725.392	0.3
725.706	0.29
726.019	0.29
726.333	0.29
726.646	0.28
726.96	0.28
727.273	0.27
727.587	0.27
727.9	0.26
728.213	0.26
728.526	0.25
728.84	0.25
729.153	0.25
729.466	0.24
729.779	0.23
730.092	0.23
730.405	0.22
730.718	0.22
731.03	0.22
731.343	0.21
731.656	0.21
731.969	0.21
732.281	0.2
732.594	0.19
732.906	0.19
733.219	0.19
733.531	0.2
733.844	0.19
734.156	0.19
734.468	0.19
734.78	0.19
735.093	0.19
735.405	0.18
735.717	0.18
736.029	0.18
736.341	0.17
736.653	0.17
736.965	0.17
737.276	0.17
737.588	0.16
737.9	0.16
738.211	0.16
738.523	0.16
738.835	0.16
739.146	0.16
739.458	0.16
739.769	0.16
740.08	0.16
740.392	0.16
740.703	0.15
741.014	0.15
741.325	0.15
741.636	0.14
741.947	0.14
742.258	0.14
742.569	0.14
742.88	0.13
743.191	0.13
743.502	0.13
743.813	0.13
744.123	0.14
744.434	0.14
744.745	0.14
745.055	0.14
745.366	0.14
745.676	0.14
745.987	0.14
746.297	0.14
746.607	0.15
746.917	0.14
747.228	0.14
747.538	0.14
747.848	0.14
748.158	0.14
748.468	0.14
748.778	0.14
749.088	0.13
749.397	0.13
749.707	0.12
750.017	0.12
750.327	0.12
750.636	0.12
750.946	0.11
751.255	0.11
751.565	0.11
751.874	0.1
752.184	0.1
752.493	0.1
752.802	0.1
753.111	0.1
753.421	0.1
753.73	0.09
754.039	0.09
754.348	0.09
754.657	0.09
754.966	0.09
755.274	0.09
755.583	0.1
755.892	0.1
756.201	0.1
756.509	0.1
756.818	0.1
757.127	0.1
757.435	0.11
757.743	0.11
758.052	0.11
758.36	0.11
758.668	0.12
758.977	0.11
759.285	0.11
759.593	0.11
759.901	0.11
760.209	0.11
760.517	0.11
760.825	0.11
761.133	0.1
761.441	0.1
761.749	0.11
762.056	0.1
762.364	0.1
762.672	0.11
762.979	0.11
763.287	0.11
763.594	0.1
763.902	0.1
764.209	0.1
764.516	0.11
764.823	0.11
765.131	0.11
765.438	0.11
765.745	0.11
766.052	0.1
766.359	0.11
766.666	0.11
766.973	0.11
767.28	0.11
767.587	0.1
767.893	0.1
768.2	0.1
768.507	0.1
768.813	0.09
769.12	0.09
769.426	0.09
769.733	0.09
770.039	0.08
770.345	0.08
770.652	0.08
770.958	0.08
771.264	0.08
771.57	0.07
771.876	0.07
772.182	0.08
772.488	0.08
772.794	0.07
773.1	0.07
773.406	0.07
773.712	0.07
774.017	0.07
774.323	0.08
774.628	0.07
774.934	0.08
775.24	0.08
775.545	0.07
775.85	0.07
776.156	0.08
776.461	0.08
776.766	0.08
777.071	0.09
777.377	0.08
777.682	0.07
777.987	0.08
778.292	0.08
778.597	0.08
778.901	0.08
779.206	0.08
779.511	0.09
779.816	0.09
780.12	0.1
780.425	0.09
780.73	0.08
781.034	0.08
781.339	0.08
781.643	0.08
781.947	0.07
782.252	0.07
782.556	0.06
782.86	0.05
783.164	0.05
783.468	0.05
783.772	0.07
784.076	0.07
784.38	0.08
784.684	0.09
784.988	0.08
785.292	0.08
785.595	0.09
785.899	0.09
786.203	0.09
786.506	0.07
786.81	0.06
787.113	0.05
787.417	0.05
787.72	0.05
788.023	0.04
788.327	0.05
788.63	0.05
788.933	0.05
789.236	0.05
789.539	0.07
789.842	0.08
790.145	0.09
790.448	0.08
790.751	0.09
791.054	0.09
791.356	0.1
791.659	0.09
791.962	0.09
792.264	0.1
792.567	0.09
792.869	0.07
793.172	0.08
793.474	0.07
793.776	0.09
794.078	0.08
794.381	0.09
794.683	0.08
794.985	0.07
795.287	0.06
795.589	0.07
795.891	0.08
796.193	0.09
796.495	0.09
796.796	0.09
797.098	0.06
797.4	0.06
797.701	0.06
798.003	0.07
798.304	0.07
798.606	0.09
798.907	0.08
799.209	0.08
799.51	0.07
799.811	0.06
800.112	0.07
800.414	0.07
800.715	0.06
801.016	0.06
801.317	0.05
801.618	0.05
801.919	0.03
802.219	0.04
802.52	0.05
802.821	0.06
803.122	0.05
803.422	0.05
803.723	0.05
804.023	0.07
804.324	0.07
804.624	0.08
804.924	0.09
805.225	0.11
805.525	0.1
805.825	0.09
806.125	0.1
806.425	0.11
806.725	0.11
807.025	0.12
807.325	0.11
807.625	0.1
807.925	0.11
808.225	0.09
808.525	0.09
808.824	0.08
809.124	0.08
809.423	0.09
809.723	0.09
810.022	0.08
810.322	0.08
810.621	0.07
810.92	0.07
811.22	0.03
811.519	0.03
811.818	0.04
812.117	0.04
812.416	0.03
812.715	0.03
813.014	0.03
813.313	0.04
813.612	0.05
813.91	0.09
814.209	0.08
814.508	0.11
814.806	0.12
815.105	0.1
815.403	0.1
815.702	0.11
816	0.12
816.298	0.13
816.597	0.13
816.895	0.11
817.193	0.08
817.491	0.09
817.789	0.08
818.087	0.1
818.385	0.12
818.683	0.12
818.981	0.12
819.279	0.1
819.577	0.08
819.874	0.08
820.172	0.07
820.469	0.09
820.767	0.07
821.064	0.08
821.362	0.08
821.659	0.09
821.957	0.09
822.254	0.1
822.551	0.09
822.848	0.12
823.145	0.13
823.442	0.15
823.739	0.16
824.036	0.17
824.333	0.16
824.63	0.16
824.927	0.11
825.223	0.12
825.52	0.14
825.817	0.13
826.113	0.12
826.41	0.09
826.706	0.08
827.003	0.08
827.299	0.1
827.595	0.1
827.892	0.05
828.188	0.1
828.484	0.1
828.78	0.06
829.076	0.06
829.372	0.05
829.668	0.09
829.964	0.06
830.26	0.05
830.555	0.07
830.851	0.09
831.147	0.12
831.442	0.12
831.738	0.11
832.033	0.12
832.329	0.13
832.624	0.15
832.919	0.14
833.215	0.18
833.51	0.21
833.805	0.19
834.1	0.17
834.395	0.17
834.69	0.18
834.985	0.19
835.28	0.19
835.575	0.22
835.87	0.23
836.164	0.22
836.459	0.19
836.754	0.17
837.048	0.17
837.343	0.16
837.637	0.18
837.932	0.19
838.226	0.2
838.52	0.2
838.814	0.19
839.109	0.18
839.403	0.18
839.697	0.16
839.991	0.15
840.285	0.14
840.579	0.15
840.873	0.15
841.166	0.11
841.46	0.07
841.754	0.08
842.047	0.08
842.341	0.07
842.635	0.1
842.928	0.12
843.222	0.14
843.515	0.16
843.808	0.2
844.101	0.22
844.395	0.21
844.688	0.19
844.981	0.2
845.274	0.21
845.567	0.2
845.86	0.19
846.153	0.22
846.446	0.2
846.738	0.12
847.031	0.07
847.324	0.06
847.616	0.07
847.909	0.08
848.201	0.14
848.494	0.12
848.786	0.1
849.079	0.12
849.371	0.11
849.663	0.12
849.955	0.13
850.247	0.07
850.539	0.05
850.831	0.12
851.123	0.11
851.415	0.04
851.707	0.06
851.999	0.06
852.291	0.02
852.582	0.06
852.874	0.08
853.166	0.13
853.457	0.24
853.749	0.18
854.04	0.14
854.331	0.2
854.623	0.19
854.914	0.27
855.205	0.34
855.496	0.3
855.787	0.27
856.078	0.24
856.369	0.27
856.66	0.21
856.951	0.35
857.242	0.35
857.533	0.33
857.823	0.37
858.114	0.25
858.404	0.23
858.695	0.28
858.985	0.29
859.276	0.3
859.566	0.24
859.857	0.28
860.147	0.27
860.437	0.32
860.727	0.23
861.017	0.2
861.307	0.17
861.597	0.16
861.887	0.1
862.177	0.23
862.467	0.4
862.757	0.45
863.046	0.55
863.336	0.47
863.626	0.43
863.915	0.49
864.205	0.59
864.494	0.75
864.783	0.7
865.073	0.81
865.362	0.61
865.651	0.28
865.94	0.3
866.229	0.19
866.518	0.35
866.807	0.32
867.096	0.36
867.385	0.33
867.674	0.27
867.963	0.34
868.252	0.44
868.54	0.55
868.829	0.84
869.117	0.86
869.406	0.96
869.694	0.91
869.983	1.05
870.271	1.12
870.559	1.16
